A16RCHJKE5A4G:3YMU66OBIR5DZD21AMPOK6A5W33GH3,0,1580504143731,"{""rt"": 10302.255000002333, ""responses"": ""{\""Q0\"":\""green, circle\""}"", ""test_part"": ""botcheck"", ""trial_type"": ""survey-text"", ""trial_index"": 0, ""time_elapsed"": 10328, ""internal_node_id"": ""0.0-0.0"", ""uniqueId"": ""A16RCHJKE5A4G:3YMU66OBIR5DZD21AMPOK6A5W33GH3"", ""condition"": 0, ""counterbalance"": 0}"
A16RCHJKE5A4G:3YMU66OBIR5DZD21AMPOK6A5W33GH3,1,1580504157702,"{""rt"": 13966.075000003912, ""stimulus"": ""<p>This session will last for 10min.</p><p> In each trial, you will see some letters (A, B or C) appearing one-by-one. </p><p> You will be asked to stop the sequence by pressing the spacebar. </p><p> Some sequences you will see have some structure, and some don't. </p><p> Your task is to stop the sequence whenever you feel like you can predict </p><p> the next letter or when you feel like there is no structure </p><p> and the sequence is unpredictable. </p><p> Sequences are generated independently from each other. </p><p> <br /> Let us practice before we move on to the actual experiment. </p> <br />"", ""button_pressed"": ""0"", ""test_part"": ""instructions"", ""trial_type"": ""html-button-response"", ""trial_index"": 1, ""time_elapsed"": 24300, ""internal_node_id"": ""0.0-1.0"", ""uniqueId"": ""A16RCHJKE5A4G:3YMU66OBIR5DZD21AMPOK6A5W33GH3"", ""condition"": 0, ""counterbalance"": 0}"
A16RCHJKE5A4G:3YMU66OBIR5DZD21AMPOK6A5W33GH3,2,1580504162408,"{""rt"": 3704.51999999932, ""stimulus"": ""<p> Remember: Some sequences will be very predictable, some will be somewhat predictable, while others will have no structure at all. </p><p> Stop the sequence by pressing the spacebar whenever you feel you can predict the next letter, or you decide that the sequence is unpredictable. </p>"", ""button_pressed"": ""0"", ""test_part"": ""instructions"", ""trial_type"": ""html-button-response"", ""trial_index"": 2, ""time_elapsed"": 29007, ""internal_node_id"": ""0.0-2.0"", ""uniqueId"": ""A16RCHJKE5A4G:3YMU66OBIR5DZD21AMPOK6A5W33GH3"", ""condition"": 0, ""counterbalance"": 0}"
A16RCHJKE5A4G:3YMU66OBIR5DZD21AMPOK6A5W33GH3,3,1580504164221,"{""rt"": null, ""stimulus"": ""<div style=\""font-size:65px;\"">  <p> </p>A</div>"", ""key_press"": null, ""test_part"": ""training"", ""next_elem"": ""B"", ""trial_type"": ""html-keyboard-response"", ""trial_index"": 3, ""time_elapsed"": 30820, ""internal_node_id"": ""0.0-3.0-0.0-0.0"", ""uniqueId"": ""A16RCHJKE5A4G:3YMU66OBIR5DZD21AMPOK6A5W33GH3"", ""condition"": 0, ""counterbalance"": 0}"
A16RCHJKE5A4G:3YMU66OBIR5DZD21AMPOK6A5W33GH3,4,1580504165329,"{""rt"": null, ""stimulus"": ""<div style=\""font-size:65px;\"">  <p> </p>B</div>"", ""key_press"": null, ""test_part"": ""training"", ""next_elem"": ""C"", ""trial_type"": ""html-keyboard-response"", ""trial_index"": 4, ""time_elapsed"": 31928, ""internal_node_id"": ""0.0-3.0-0.0-0.1"", ""uniqueId"": ""A16RCHJKE5A4G:3YMU66OBIR5DZD21AMPOK6A5W33GH3"", ""condition"": 0, ""counterbalance"": 0}"
A16RCHJKE5A4G:3YMU66OBIR5DZD21AMPOK6A5W33GH3,5,1580504166438,"{""rt"": null, ""stimulus"": ""<div style=\""font-size:65px;\"">  <p> </p>C</div>"", ""key_press"": null, ""test_part"": ""training"", ""next_elem"": ""A"", ""trial_type"": ""html-keyboard-response"", ""trial_index"": 5, ""time_elapsed"": 33037, ""internal_node_id"": ""0.0-3.0-0.0-0.2"", ""uniqueId"": ""A16RCHJKE5A4G:3YMU66OBIR5DZD21AMPOK6A5W33GH3"", ""condition"": 0, ""counterbalance"": 0}"
A16RCHJKE5A4G:3YMU66OBIR5DZD21AMPOK6A5W33GH3,6,1580504167548,"{""rt"": null, ""stimulus"": ""<div style=\""font-size:65px;\"">  <p> </p>A</div>"", ""key_press"": null, ""test_part"": ""training"", ""next_elem"": ""B"", ""trial_type"": ""html-keyboard-response"", ""trial_index"": 6, ""time_elapsed"": 34147, ""internal_node_id"": ""0.0-3.0-0.0-0.3"", ""uniqueId"": ""A16RCHJKE5A4G:3YMU66OBIR5DZD21AMPOK6A5W33GH3"", ""condition"": 0, ""counterbalance"": 0}"
A16RCHJKE5A4G:3YMU66OBIR5DZD21AMPOK6A5W33GH3,7,1580504168656,"{""rt"": null, ""stimulus"": ""<div style=\""font-size:65px;\"">  <p> </p>B</div>"", ""key_press"": null, ""test_part"": ""training"", ""next_elem"": ""C"", ""trial_type"": ""html-keyboard-response"", ""trial_index"": 7, ""time_elapsed"": 35255, ""internal_node_id"": ""0.0-3.0-0.0-0.4"", ""uniqueId"": ""A16RCHJKE5A4G:3YMU66OBIR5DZD21AMPOK6A5W33GH3"", ""condition"": 0, ""counterbalance"": 0}"
A16RCHJKE5A4G:3YMU66OBIR5DZD21AMPOK6A5W33GH3,8,1580504169202,"{""rt"": 243.19500000274274, ""stimulus"": ""<div style=\""font-size:65px;\"">  <p> </p>C</div>"", ""key_press"": 32, ""test_part"": ""training"", ""next_elem"": ""A"", ""trial_type"": ""html-keyboard-response"", ""trial_index"": 8, ""time_elapsed"": 35801, ""internal_node_id"": ""0.0-3.0-0.0-0.5"", ""uniqueId"": ""A16RCHJKE5A4G:3YMU66OBIR5DZD21AMPOK6A5W33GH3"", ""condition"": 0, ""counterbalance"": 0}"
A16RCHJKE5A4G:3YMU66OBIR5DZD21AMPOK6A5W33GH3,9,1580504178675,"{""rt"": 9169.965000008233, ""responses"": ""{\""Q0\"":\""A\""}"", ""question_order"": ""[0]"", ""test_part"": ""prediction"", ""trial_type"": ""survey-multi-choice"", ""trial_index"": 9, ""time_elapsed"": 45274, ""internal_node_id"": ""0.0-3.0-1.0"", ""uniqueId"": ""A16RCHJKE5A4G:3YMU66OBIR5DZD21AMPOK6A5W33GH3"", ""condition"": 0, ""counterbalance"": 0}"
A16RCHJKE5A4G:3YMU66OBIR5DZD21AMPOK6A5W33GH3,10,1580504180002,"{""rt"": 1323.7300000037067, ""stimulus"": ""Correct!"", ""button_pressed"": ""0"", ""test_part"": ""feedback"", ""trial_type"": ""html-button-response"", ""trial_index"": 10, ""time_elapsed"": 46601, ""internal_node_id"": ""0.0-3.0-2.0"", ""uniqueId"": ""A16RCHJKE5A4G:3YMU66OBIR5DZD21AMPOK6A5W33GH3"", ""condition"": 0, ""counterbalance"": 0}"
A16RCHJKE5A4G:3YMU66OBIR5DZD21AMPOK6A5W33GH3,11,1580504180806,"{""rt"": null, ""stimulus"": ""<div style=\""font-size:65px;\"">  <p> </p>A</div>"", ""key_press"": null, ""test_part"": ""training"", ""next_elem"": ""A"", ""trial_type"": ""html-keyboard-response"", ""trial_index"": 11, ""time_elapsed"": 47404, ""internal_node_id"": ""0.0-4.0-0.0-0.0"", ""uniqueId"": ""A16RCHJKE5A4G:3YMU66OBIR5DZD21AMPOK6A5W33GH3"", ""condition"": 0, ""counterbalance"": 0}"
A16RCHJKE5A4G:3YMU66OBIR5DZD21AMPOK6A5W33GH3,12,1580504181913,"{""rt"": null, ""stimulus"": ""<div style=\""font-size:65px;\"">  <p> </p>A</div>"", ""key_press"": null, ""test_part"": ""training"", ""next_elem"": ""A"", ""trial_type"": ""html-keyboard-response"", ""trial_index"": 12, ""time_elapsed"": 48512, ""internal_node_id"": ""0.0-4.0-0.0-0.1"", ""uniqueId"": ""A16RCHJKE5A4G:3YMU66OBIR5DZD21AMPOK6A5W33GH3"", ""condition"": 0, ""counterbalance"": 0}"
A16RCHJKE5A4G:3YMU66OBIR5DZD21AMPOK6A5W33GH3,13,1580504183021,"{""rt"": null, ""stimulus"": ""<div style=\""font-size:65px;\"">  <p> </p>A</div>"", ""key_press"": null, ""test_part"": ""training"", ""next_elem"": ""A"", ""trial_type"": ""html-keyboard-response"", ""trial_index"": 13, ""time_elapsed"": 49620, ""internal_node_id"": ""0.0-4.0-0.0-0.2"", ""uniqueId"": ""A16RCHJKE5A4G:3YMU66OBIR5DZD21AMPOK6A5W33GH3"", ""condition"": 0, ""counterbalance"": 0}"
A16RCHJKE5A4G:3YMU66OBIR5DZD21AMPOK6A5W33GH3,14,1580504184125,"{""rt"": null, ""stimulus"": ""<div style=\""font-size:65px;\"">  <p> </p>A</div>"", ""key_press"": null, ""test_part"": ""training"", ""next_elem"": ""A"", ""trial_type"": ""html-keyboard-response"", ""trial_index"": 14, ""time_elapsed"": 50724, ""internal_node_id"": ""0.0-4.0-0.0-0.3"", ""uniqueId"": ""A16RCHJKE5A4G:3YMU66OBIR5DZD21AMPOK6A5W33GH3"", ""condition"": 0, ""counterbalance"": 0}"
A16RCHJKE5A4G:3YMU66OBIR5DZD21AMPOK6A5W33GH3,15,1580504185229,"{""rt"": null, ""stimulus"": ""<div style=\""font-size:65px;\"">  <p> </p>A</div>"", ""key_press"": null, ""test_part"": ""training"", ""next_elem"": ""A"", ""trial_type"": ""html-keyboard-response"", ""trial_index"": 15, ""time_elapsed"": 51828, ""internal_node_id"": ""0.0-4.0-0.0-0.4"", ""uniqueId"": ""A16RCHJKE5A4G:3YMU66OBIR5DZD21AMPOK6A5W33GH3"", ""condition"": 0, ""counterbalance"": 0}"
A16RCHJKE5A4G:3YMU66OBIR5DZD21AMPOK6A5W33GH3,16,1580504186331,"{""rt"": null, ""stimulus"": ""<div style=\""font-size:65px;\"">  <p> </p>A</div>"", ""key_press"": null, ""test_part"": ""training"", ""next_elem"": ""A"", ""trial_type"": ""html-keyboard-response"", ""trial_index"": 16, ""time_elapsed"": 52930, ""internal_node_id"": ""0.0-4.0-0.0-0.5"", ""uniqueId"": ""A16RCHJKE5A4G:3YMU66OBIR5DZD21AMPOK6A5W33GH3"", ""condition"": 0, ""counterbalance"": 0}"
A16RCHJKE5A4G:3YMU66OBIR5DZD21AMPOK6A5W33GH3,17,1580504186719,"{""rt"": 85.65000000817236, ""stimulus"": ""<div style=\""font-size:65px;\"">  <p> </p>A</div>"", ""key_press"": 32, ""test_part"": ""training"", ""next_elem"": ""A"", ""trial_type"": ""html-keyboard-response"", ""trial_index"": 17, ""time_elapsed"": 53318, ""internal_node_id"": ""0.0-4.0-0.0-0.6"", ""uniqueId"": ""A16RCHJKE5A4G:3YMU66OBIR5DZD21AMPOK6A5W33GH3"", ""condition"": 0, ""counterbalance"": 0}"
A16RCHJKE5A4G:3YMU66OBIR5DZD21AMPOK6A5W33GH3,18,1580504190312,"{""rt"": 3288.9850000065053, ""responses"": ""{\""Q0\"":\""A\""}"", ""question_order"": ""[0]"", ""test_part"": ""prediction"", ""trial_type"": ""survey-multi-choice"", ""trial_index"": 18, ""time_elapsed"": 56911, ""internal_node_id"": ""0.0-4.0-1.0"", ""uniqueId"": ""A16RCHJKE5A4G:3YMU66OBIR5DZD21AMPOK6A5W33GH3"", ""condition"": 0, ""counterbalance"": 0}"
A16RCHJKE5A4G:3YMU66OBIR5DZD21AMPOK6A5W33GH3,19,1580504191333,"{""rt"": 1019.0549999970244, ""stimulus"": ""Correct!"", ""button_pressed"": ""0"", ""test_part"": ""feedback"", ""trial_type"": ""html-button-response"", ""trial_index"": 19, ""time_elapsed"": 57932, ""internal_node_id"": ""0.0-4.0-2.0"", ""uniqueId"": ""A16RCHJKE5A4G:3YMU66OBIR5DZD21AMPOK6A5W33GH3"", ""condition"": 0, ""counterbalance"": 0}"
A16RCHJKE5A4G:3YMU66OBIR5DZD21AMPOK6A5W33GH3,20,1580504192136,"{""rt"": null, ""stimulus"": ""<div style=\""font-size:65px;\"">A</div>"", ""key_press"": null, ""test_part"": ""training"", ""next_elem"": ""B"", ""trial_type"": ""html-keyboard-response"", ""trial_index"": 20, ""time_elapsed"": 58735, ""internal_node_id"": ""0.0-5.0-0.0-0.0"", ""uniqueId"": ""A16RCHJKE5A4G:3YMU66OBIR5DZD21AMPOK6A5W33GH3"", ""condition"": 0, ""counterbalance"": 0}"
A16RCHJKE5A4G:3YMU66OBIR5DZD21AMPOK6A5W33GH3,21,1580504193238,"{""rt"": null, ""stimulus"": ""<div style=\""font-size:65px;\"">B</div>"", ""key_press"": null, ""test_part"": ""training"", ""next_elem"": ""B"", ""trial_type"": ""html-keyboard-response"", ""trial_index"": 21, ""time_elapsed"": 59837, ""internal_node_id"": ""0.0-5.0-0.0-0.1"", ""uniqueId"": ""A16RCHJKE5A4G:3YMU66OBIR5DZD21AMPOK6A5W33GH3"", ""condition"": 0, ""counterbalance"": 0}"
A16RCHJKE5A4G:3YMU66OBIR5DZD21AMPOK6A5W33GH3,22,1580504194341,"{""rt"": null, ""stimulus"": ""<div style=\""font-size:65px;\"">B</div>"", ""key_press"": null, ""test_part"": ""training"", ""next_elem"": ""C"", ""trial_type"": ""html-keyboard-response"", ""trial_index"": 22, ""time_elapsed"": 60940, ""internal_node_id"": ""0.0-5.0-0.0-0.2"", ""uniqueId"": ""A16RCHJKE5A4G:3YMU66OBIR5DZD21AMPOK6A5W33GH3"", ""condition"": 0, ""counterbalance"": 0}"
A16RCHJKE5A4G:3YMU66OBIR5DZD21AMPOK6A5W33GH3,23,1580504195444,"{""rt"": null, ""stimulus"": ""<div style=\""font-size:65px;\"">C</div>"", ""key_press"": null, ""test_part"": ""training"", ""next_elem"": ""B"", ""trial_type"": ""html-keyboard-response"", ""trial_index"": 23, ""time_elapsed"": 62043, ""internal_node_id"": ""0.0-5.0-0.0-0.3"", ""uniqueId"": ""A16RCHJKE5A4G:3YMU66OBIR5DZD21AMPOK6A5W33GH3"", ""condition"": 0, ""counterbalance"": 0}"
A16RCHJKE5A4G:3YMU66OBIR5DZD21AMPOK6A5W33GH3,24,1580504196548,"{""rt"": null, ""stimulus"": ""<div style=\""font-size:65px;\"">B</div>"", ""key_press"": null, ""test_part"": ""training"", ""next_elem"": ""A"", ""trial_type"": ""html-keyboard-response"", ""trial_index"": 24, ""time_elapsed"": 63147, ""internal_node_id"": ""0.0-5.0-0.0-0.4"", ""uniqueId"": ""A16RCHJKE5A4G:3YMU66OBIR5DZD21AMPOK6A5W33GH3"", ""condition"": 0, ""counterbalance"": 0}"
A16RCHJKE5A4G:3YMU66OBIR5DZD21AMPOK6A5W33GH3,25,1580504197653,"{""rt"": null, ""stimulus"": ""<div style=\""font-size:65px;\"">A</div>"", ""key_press"": null, ""test_part"": ""training"", ""next_elem"": ""C"", ""trial_type"": ""html-keyboard-response"", ""trial_index"": 25, ""time_elapsed"": 64252, ""internal_node_id"": ""0.0-5.0-0.0-0.5"", ""uniqueId"": ""A16RCHJKE5A4G:3YMU66OBIR5DZD21AMPOK6A5W33GH3"", ""condition"": 0, ""counterbalance"": 0}"
A16RCHJKE5A4G:3YMU66OBIR5DZD21AMPOK6A5W33GH3,26,1580504198758,"{""rt"": null, ""stimulus"": ""<div style=\""font-size:65px;\"">C</div>"", ""key_press"": null, ""test_part"": ""training"", ""next_elem"": ""C"", ""trial_type"": ""html-keyboard-response"", ""trial_index"": 26, ""time_elapsed"": 65357, ""internal_node_id"": ""0.0-5.0-0.0-0.6"", ""uniqueId"": ""A16RCHJKE5A4G:3YMU66OBIR5DZD21AMPOK6A5W33GH3"", ""condition"": 0, ""counterbalance"": 0}"
A16RCHJKE5A4G:3YMU66OBIR5DZD21AMPOK6A5W33GH3,27,1580504199861,"{""rt"": null, ""stimulus"": ""<div style=\""font-size:65px;\"">C</div>"", ""key_press"": null, ""test_part"": ""training"", ""next_elem"": ""B"", ""trial_type"": ""html-keyboard-response"", ""trial_index"": 27, ""time_elapsed"": 66460, ""internal_node_id"": ""0.0-5.0-0.0-0.7"", ""uniqueId"": ""A16RCHJKE5A4G:3YMU66OBIR5DZD21AMPOK6A5W33GH3"", ""condition"": 0, ""counterbalance"": 0}"
A16RCHJKE5A4G:3YMU66OBIR5DZD21AMPOK6A5W33GH3,28,1580504200965,"{""rt"": null, ""stimulus"": ""<div style=\""font-size:65px;\"">B</div>"", ""key_press"": null, ""test_part"": ""training"", ""next_elem"": ""A"", ""trial_type"": ""html-keyboard-response"", ""trial_index"": 28, ""time_elapsed"": 67564, ""internal_node_id"": ""0.0-5.0-0.0-0.8"", ""uniqueId"": ""A16RCHJKE5A4G:3YMU66OBIR5DZD21AMPOK6A5W33GH3"", ""condition"": 0, ""counterbalance"": 0}"
A16RCHJKE5A4G:3YMU66OBIR5DZD21AMPOK6A5W33GH3,29,1580504202067,"{""rt"": null, ""stimulus"": ""<div style=\""font-size:65px;\"">A</div>"", ""key_press"": null, ""test_part"": ""training"", ""next_elem"": ""C"", ""trial_type"": ""html-keyboard-response"", ""trial_index"": 29, ""time_elapsed"": 68666, ""internal_node_id"": ""0.0-5.0-0.0-0.9"", ""uniqueId"": ""A16RCHJKE5A4G:3YMU66OBIR5DZD21AMPOK6A5W33GH3"", ""condition"": 0, ""counterbalance"": 0}"
A16RCHJKE5A4G:3YMU66OBIR5DZD21AMPOK6A5W33GH3,30,1580504203170,"{""rt"": null, ""stimulus"": ""<div style=\""font-size:65px;\"">C</div>"", ""key_press"": null, ""test_part"": ""training"", ""next_elem"": ""B"", ""trial_type"": ""html-keyboard-response"", ""trial_index"": 30, ""time_elapsed"": 69769, ""internal_node_id"": ""0.0-5.0-0.0-0.10"", ""uniqueId"": ""A16RCHJKE5A4G:3YMU66OBIR5DZD21AMPOK6A5W33GH3"", ""condition"": 0, ""counterbalance"": 0}"
A16RCHJKE5A4G:3YMU66OBIR5DZD21AMPOK6A5W33GH3,31,1580504204277,"{""rt"": null, ""stimulus"": ""<div style=\""font-size:65px;\"">B</div>"", ""key_press"": null, ""test_part"": ""training"", ""next_elem"": ""C"", ""trial_type"": ""html-keyboard-response"", ""trial_index"": 31, ""time_elapsed"": 70876, ""internal_node_id"": ""0.0-5.0-0.0-0.11"", ""uniqueId"": ""A16RCHJKE5A4G:3YMU66OBIR5DZD21AMPOK6A5W33GH3"", ""condition"": 0, ""counterbalance"": 0}"
A16RCHJKE5A4G:3YMU66OBIR5DZD21AMPOK6A5W33GH3,32,1580504205384,"{""rt"": null, ""stimulus"": ""<div style=\""font-size:65px;\"">C</div>"", ""key_press"": null, ""test_part"": ""training"", ""next_elem"": ""B"", ""trial_type"": ""html-keyboard-response"", ""trial_index"": 32, ""time_elapsed"": 71983, ""internal_node_id"": ""0.0-5.0-0.0-0.12"", ""uniqueId"": ""A16RCHJKE5A4G:3YMU66OBIR5DZD21AMPOK6A5W33GH3"", ""condition"": 0, ""counterbalance"": 0}"
A16RCHJKE5A4G:3YMU66OBIR5DZD21AMPOK6A5W33GH3,33,1580504206487,"{""rt"": null, ""stimulus"": ""<div style=\""font-size:65px;\"">B</div>"", ""key_press"": null, ""test_part"": ""training"", ""next_elem"": ""A"", ""trial_type"": ""html-keyboard-response"", ""trial_index"": 33, ""time_elapsed"": 73086, ""internal_node_id"": ""0.0-5.0-0.0-0.13"", ""uniqueId"": ""A16RCHJKE5A4G:3YMU66OBIR5DZD21AMPOK6A5W33GH3"", ""condition"": 0, ""counterbalance"": 0}"
A16RCHJKE5A4G:3YMU66OBIR5DZD21AMPOK6A5W33GH3,34,1580504207594,"{""rt"": null, ""stimulus"": ""<div style=\""font-size:65px;\"">A</div>"", ""key_press"": null, ""test_part"": ""training"", ""next_elem"": ""A "", ""trial_type"": ""html-keyboard-response"", ""trial_index"": 34, ""time_elapsed"": 74193, ""internal_node_id"": ""0.0-5.0-0.0-0.14"", ""uniqueId"": ""A16RCHJKE5A4G:3YMU66OBIR5DZD21AMPOK6A5W33GH3"", ""condition"": 0, ""counterbalance"": 0}"
A16RCHJKE5A4G:3YMU66OBIR5DZD21AMPOK6A5W33GH3,35,1580504208697,"{""rt"": null, ""stimulus"": ""<div style=\""font-size:65px;\"">A   </div>"", ""key_press"": null, ""test_part"": ""training"", ""next_elem"": ""B"", ""trial_type"": ""html-keyboard-response"", ""trial_index"": 35, ""time_elapsed"": 75296, ""internal_node_id"": ""0.0-5.0-0.0-0.15"", ""uniqueId"": ""A16RCHJKE5A4G:3YMU66OBIR5DZD21AMPOK6A5W33GH3"", ""condition"": 0, ""counterbalance"": 0}"
A16RCHJKE5A4G:3YMU66OBIR5DZD21AMPOK6A5W33GH3,36,1580504209470,"{""rt"": 471.23999999894295, ""stimulus"": ""<div style=\""font-size:65px;\"">B</div>"", ""key_press"": 32, ""test_part"": ""training"", ""next_elem"": ""C"", ""trial_type"": ""html-keyboard-response"", ""trial_index"": 36, ""time_elapsed"": 76069, ""internal_node_id"": ""0.0-5.0-0.0-0.16"", ""uniqueId"": ""A16RCHJKE5A4G:3YMU66OBIR5DZD21AMPOK6A5W33GH3"", ""condition"": 0, ""counterbalance"": 0}"
A16RCHJKE5A4G:3YMU66OBIR5DZD21AMPOK6A5W33GH3,37,1580504213024,"{""rt"": 3249.515000003157, ""responses"": ""{\""Q0\"":\""B\""}"", ""question_order"": ""[0]"", ""test_part"": ""prediction"", ""trial_type"": ""survey-multi-choice"", ""trial_index"": 37, ""time_elapsed"": 79623, ""internal_node_id"": ""0.0-5.0-1.0"", ""uniqueId"": ""A16RCHJKE5A4G:3YMU66OBIR5DZD21AMPOK6A5W33GH3"", ""condition"": 0, ""counterbalance"": 0}"
A16RCHJKE5A4G:3YMU66OBIR5DZD21AMPOK6A5W33GH3,38,1580504214249,"{""rt"": 1221.7000000091502, ""stimulus"": ""Incorrect!<p> The correct choice was: C"", ""button_pressed"": ""0"", ""test_part"": ""feedback"", ""trial_type"": ""html-button-response"", ""trial_index"": 38, ""time_elapsed"": 80847, ""internal_node_id"": ""0.0-5.0-2.0"", ""uniqueId"": ""A16RCHJKE5A4G:3YMU66OBIR5DZD21AMPOK6A5W33GH3"", ""condition"": 0, ""counterbalance"": 0}"
A16RCHJKE5A4G:3YMU66OBIR5DZD21AMPOK6A5W33GH3,39,1580504215924,"{""rt"": 1673.7500000017462, ""stimulus"": ""<p> You are now ready to proceed with the actual experiment. </p>"", ""button_pressed"": ""0"", ""test_part"": ""instructions"", ""trial_type"": ""html-button-response"", ""trial_index"": 39, ""time_elapsed"": 82523, ""internal_node_id"": ""0.0-6.0"", ""uniqueId"": ""A16RCHJKE5A4G:3YMU66OBIR5DZD21AMPOK6A5W33GH3"", ""condition"": 0, ""counterbalance"": 0}"
A16RCHJKE5A4G:3YMU66OBIR5DZD21AMPOK6A5W33GH3,40,1580504216730,"{""rt"": null, ""stimulus"": ""<div style=\""font-size:65px;\"">C</div>"", ""key_press"": null, ""test_part"": ""test"", ""next_elem"": ""A"", ""trial_type"": ""html-keyboard-response"", ""trial_index"": 40, ""time_elapsed"": 83329, ""internal_node_id"": ""0.0-7.0-0.0-0.0"", ""uniqueId"": ""A16RCHJKE5A4G:3YMU66OBIR5DZD21AMPOK6A5W33GH3"", ""condition"": 0, ""counterbalance"": 0}"
A16RCHJKE5A4G:3YMU66OBIR5DZD21AMPOK6A5W33GH3,41,1580504217836,"{""rt"": null, ""stimulus"": ""<div style=\""font-size:65px;\"">A</div>"", ""key_press"": null, ""test_part"": ""test"", ""next_elem"": ""B"", ""trial_type"": ""html-keyboard-response"", ""trial_index"": 41, ""time_elapsed"": 84434, ""internal_node_id"": ""0.0-7.0-0.0-0.1"", ""uniqueId"": ""A16RCHJKE5A4G:3YMU66OBIR5DZD21AMPOK6A5W33GH3"", ""condition"": 0, ""counterbalance"": 0}"
A16RCHJKE5A4G:3YMU66OBIR5DZD21AMPOK6A5W33GH3,42,1580504218947,"{""rt"": null, ""stimulus"": ""<div style=\""font-size:65px;\"">B</div>"", ""key_press"": null, ""test_part"": ""test"", ""next_elem"": ""A"", ""trial_type"": ""html-keyboard-response"", ""trial_index"": 42, ""time_elapsed"": 85546, ""internal_node_id"": ""0.0-7.0-0.0-0.2"", ""uniqueId"": ""A16RCHJKE5A4G:3YMU66OBIR5DZD21AMPOK6A5W33GH3"", ""condition"": 0, ""counterbalance"": 0}"
A16RCHJKE5A4G:3YMU66OBIR5DZD21AMPOK6A5W33GH3,43,1580504220049,"{""rt"": null, ""stimulus"": ""<div style=\""font-size:65px;\"">A</div>"", ""key_press"": null, ""test_part"": ""test"", ""next_elem"": ""B"", ""trial_type"": ""html-keyboard-response"", ""trial_index"": 43, ""time_elapsed"": 86647, ""internal_node_id"": ""0.0-7.0-0.0-0.3"", ""uniqueId"": ""A16RCHJKE5A4G:3YMU66OBIR5DZD21AMPOK6A5W33GH3"", ""condition"": 0, ""counterbalance"": 0}"
A16RCHJKE5A4G:3YMU66OBIR5DZD21AMPOK6A5W33GH3,44,1580504221156,"{""rt"": null, ""stimulus"": ""<div style=\""font-size:65px;\"">B</div>"", ""key_press"": null, ""test_part"": ""test"", ""next_elem"": ""C"", ""trial_type"": ""html-keyboard-response"", ""trial_index"": 44, ""time_elapsed"": 87755, ""internal_node_id"": ""0.0-7.0-0.0-0.4"", ""uniqueId"": ""A16RCHJKE5A4G:3YMU66OBIR5DZD21AMPOK6A5W33GH3"", ""condition"": 0, ""counterbalance"": 0}"
A16RCHJKE5A4G:3YMU66OBIR5DZD21AMPOK6A5W33GH3,45,1580504229391,"{""rt"": 7931.670000005397, ""responses"": ""{\""Q0\"":\""C\""}"", ""question_order"": ""[0]"", ""test_part"": ""prediction"", ""trial_type"": ""survey-multi-choice"", ""trial_index"": 45, ""time_elapsed"": 95990, ""internal_node_id"": ""0.0-7.0-1.0"", ""uniqueId"": ""A16RCHJKE5A4G:3YMU66OBIR5DZD21AMPOK6A5W33GH3"", ""condition"": 0, ""counterbalance"": 0}"
A16RCHJKE5A4G:3YMU66OBIR5DZD21AMPOK6A5W33GH3,46,1580504231190,"{""rt"": 1796.71499998949, ""stimulus"": ""Correct!"", ""button_pressed"": ""0"", ""test_part"": ""feedback"", ""trial_type"": ""html-button-response"", ""trial_index"": 46, ""time_elapsed"": 97789, ""internal_node_id"": ""0.0-7.0-2.0"", ""uniqueId"": ""A16RCHJKE5A4G:3YMU66OBIR5DZD21AMPOK6A5W33GH3"", ""condition"": 0, ""counterbalance"": 0}"
A16RCHJKE5A4G:3YMU66OBIR5DZD21AMPOK6A5W33GH3,47,1580504231994,"{""rt"": null, ""stimulus"": ""<div style=\""font-size:65px;\"">A</div>"", ""key_press"": null, ""test_part"": ""test"", ""next_elem"": ""A"", ""trial_type"": ""html-keyboard-response"", ""trial_index"": 47, ""time_elapsed"": 98592, ""internal_node_id"": ""0.0-8.0-0.0-0.0"", ""uniqueId"": ""A16RCHJKE5A4G:3YMU66OBIR5DZD21AMPOK6A5W33GH3"", ""condition"": 0, ""counterbalance"": 0}"
A16RCHJKE5A4G:3YMU66OBIR5DZD21AMPOK6A5W33GH3,48,1580504233095,"{""rt"": null, ""stimulus"": ""<div style=\""font-size:65px;\"">A</div>"", ""key_press"": null, ""test_part"": ""test"", ""next_elem"": ""A"", ""trial_type"": ""html-keyboard-response"", ""trial_index"": 48, ""time_elapsed"": 99694, ""internal_node_id"": ""0.0-8.0-0.0-0.1"", ""uniqueId"": ""A16RCHJKE5A4G:3YMU66OBIR5DZD21AMPOK6A5W33GH3"", ""condition"": 0, ""counterbalance"": 0}"
A16RCHJKE5A4G:3YMU66OBIR5DZD21AMPOK6A5W33GH3,49,1580504234200,"{""rt"": null, ""stimulus"": ""<div style=\""font-size:65px;\"">A</div>"", ""key_press"": null, ""test_part"": ""test"", ""next_elem"": ""A"", ""trial_type"": ""html-keyboard-response"", ""trial_index"": 49, ""time_elapsed"": 100799, ""internal_node_id"": ""0.0-8.0-0.0-0.2"", ""uniqueId"": ""A16RCHJKE5A4G:3YMU66OBIR5DZD21AMPOK6A5W33GH3"", ""condition"": 0, ""counterbalance"": 0}"
A16RCHJKE5A4G:3YMU66OBIR5DZD21AMPOK6A5W33GH3,50,1580504235306,"{""rt"": null, ""stimulus"": ""<div style=\""font-size:65px;\"">A</div>"", ""key_press"": null, ""test_part"": ""test"", ""next_elem"": "" "", ""trial_type"": ""html-keyboard-response"", ""trial_index"": 50, ""time_elapsed"": 101904, ""internal_node_id"": ""0.0-8.0-0.0-0.3"", ""uniqueId"": ""A16RCHJKE5A4G:3YMU66OBIR5DZD21AMPOK6A5W33GH3"", ""condition"": 0, ""counterbalance"": 0}"
A16RCHJKE5A4G:3YMU66OBIR5DZD21AMPOK6A5W33GH3,51,1580504236407,"{""rt"": null, ""stimulus"": ""<div style=\""font-size:65px;\""> </div>"", ""key_press"": null, ""test_part"": ""test"", ""next_elem"": "" "", ""trial_type"": ""html-keyboard-response"", ""trial_index"": 51, ""time_elapsed"": 103006, ""internal_node_id"": ""0.0-8.0-0.0-0.4"", ""uniqueId"": ""A16RCHJKE5A4G:3YMU66OBIR5DZD21AMPOK6A5W33GH3"", ""condition"": 0, ""counterbalance"": 0}"
A16RCHJKE5A4G:3YMU66OBIR5DZD21AMPOK6A5W33GH3,52,1580504239034,"{""rt"": 2322.4999999947613, ""responses"": ""{\""Q0\"":\""A\""}"", ""question_order"": ""[0]"", ""test_part"": ""prediction"", ""trial_type"": ""survey-multi-choice"", ""trial_index"": 52, ""time_elapsed"": 105633, ""internal_node_id"": ""0.0-8.0-1.0"", ""uniqueId"": ""A16RCHJKE5A4G:3YMU66OBIR5DZD21AMPOK6A5W33GH3"", ""condition"": 0, ""counterbalance"": 0}"
A16RCHJKE5A4G:3YMU66OBIR5DZD21AMPOK6A5W33GH3,53,1580504243529,"{""rt"": 4489.515000008396, ""stimulus"": ""Incorrect!<p> The correct choice was:  "", ""button_pressed"": ""0"", ""test_part"": ""feedback"", ""trial_type"": ""html-button-response"", ""trial_index"": 53, ""time_elapsed"": 110128, ""internal_node_id"": ""0.0-8.0-2.0"", ""uniqueId"": ""A16RCHJKE5A4G:3YMU66OBIR5DZD21AMPOK6A5W33GH3"", ""condition"": 0, ""counterbalance"": 0}"
A16RCHJKE5A4G:3YMU66OBIR5DZD21AMPOK6A5W33GH3,54,1580504244332,"{""rt"": null, ""stimulus"": ""<div style=\""font-size:65px;\"">A</div>"", ""key_press"": null, ""test_part"": ""test"", ""next_elem"": ""A"", ""trial_type"": ""html-keyboard-response"", ""trial_index"": 54, ""time_elapsed"": 110930, ""internal_node_id"": ""0.0-9.0-0.0-0.0"", ""uniqueId"": ""A16RCHJKE5A4G:3YMU66OBIR5DZD21AMPOK6A5W33GH3"", ""condition"": 0, ""counterbalance"": 0}"
A16RCHJKE5A4G:3YMU66OBIR5DZD21AMPOK6A5W33GH3,55,1580504245434,"{""rt"": null, ""stimulus"": ""<div style=\""font-size:65px;\"">A</div>"", ""key_press"": null, ""test_part"": ""test"", ""next_elem"": ""A"", ""trial_type"": ""html-keyboard-response"", ""trial_index"": 55, ""time_elapsed"": 112033, ""internal_node_id"": ""0.0-9.0-0.0-0.1"", ""uniqueId"": ""A16RCHJKE5A4G:3YMU66OBIR5DZD21AMPOK6A5W33GH3"", ""condition"": 0, ""counterbalance"": 0}"
A16RCHJKE5A4G:3YMU66OBIR5DZD21AMPOK6A5W33GH3,56,1580504246538,"{""rt"": null, ""stimulus"": ""<div style=\""font-size:65px;\"">A</div>"", ""key_press"": null, ""test_part"": ""test"", ""next_elem"": ""C"", ""trial_type"": ""html-keyboard-response"", ""trial_index"": 56, ""time_elapsed"": 113136, ""internal_node_id"": ""0.0-9.0-0.0-0.2"", ""uniqueId"": ""A16RCHJKE5A4G:3YMU66OBIR5DZD21AMPOK6A5W33GH3"", ""condition"": 0, ""counterbalance"": 0}"
A16RCHJKE5A4G:3YMU66OBIR5DZD21AMPOK6A5W33GH3,57,1580504247642,"{""rt"": null, ""stimulus"": ""<div style=\""font-size:65px;\"">C</div>"", ""key_press"": null, ""test_part"": ""test"", ""next_elem"": ""B"", ""trial_type"": ""html-keyboard-response"", ""trial_index"": 57, ""time_elapsed"": 114239, ""internal_node_id"": ""0.0-9.0-0.0-0.3"", ""uniqueId"": ""A16RCHJKE5A4G:3YMU66OBIR5DZD21AMPOK6A5W33GH3"", ""condition"": 0, ""counterbalance"": 0}"
A16RCHJKE5A4G:3YMU66OBIR5DZD21AMPOK6A5W33GH3,58,1580504248751,"{""rt"": null, ""stimulus"": ""<div style=\""font-size:65px;\"">B</div>"", ""key_press"": null, ""test_part"": ""test"", ""next_elem"": ""A"", ""trial_type"": ""html-keyboard-response"", ""trial_index"": 58, ""time_elapsed"": 115350, ""internal_node_id"": ""0.0-9.0-0.0-0.4"", ""uniqueId"": ""A16RCHJKE5A4G:3YMU66OBIR5DZD21AMPOK6A5W33GH3"", ""condition"": 0, ""counterbalance"": 0}"
A16RCHJKE5A4G:3YMU66OBIR5DZD21AMPOK6A5W33GH3,59,1580504255509,"{""rt"": 6452.460000000428, ""responses"": ""{\""Q0\"":\""Equally likely\""}"", ""question_order"": ""[0]"", ""test_part"": ""prediction"", ""trial_type"": ""survey-multi-choice"", ""trial_index"": 59, ""time_elapsed"": 122107, ""internal_node_id"": ""0.0-9.0-1.0"", ""uniqueId"": ""A16RCHJKE5A4G:3YMU66OBIR5DZD21AMPOK6A5W33GH3"", ""condition"": 0, ""counterbalance"": 0}"
A16RCHJKE5A4G:3YMU66OBIR5DZD21AMPOK6A5W33GH3,60,1580504257561,"{""rt"": 2048.9749999978812, ""stimulus"": """", ""button_pressed"": ""0"", ""test_part"": ""feedback"", ""trial_type"": ""html-button-response"", ""trial_index"": 60, ""time_elapsed"": 124159, ""internal_node_id"": ""0.0-9.0-2.0"", ""uniqueId"": ""A16RCHJKE5A4G:3YMU66OBIR5DZD21AMPOK6A5W33GH3"", ""condition"": 0, ""counterbalance"": 0}"
A16RCHJKE5A4G:3YMU66OBIR5DZD21AMPOK6A5W33GH3,61,1580504258363,"{""rt"": null, ""stimulus"": ""<div style=\""font-size:65px;\"">B</div>"", ""key_press"": null, ""test_part"": ""test"", ""next_elem"": ""B"", ""trial_type"": ""html-keyboard-response"", ""trial_index"": 61, ""time_elapsed"": 124961, ""internal_node_id"": ""0.0-10.0-0.0-0.0"", ""uniqueId"": ""A16RCHJKE5A4G:3YMU66OBIR5DZD21AMPOK6A5W33GH3"", ""condition"": 0, ""counterbalance"": 0}"
A16RCHJKE5A4G:3YMU66OBIR5DZD21AMPOK6A5W33GH3,62,1580504259468,"{""rt"": null, ""stimulus"": ""<div style=\""font-size:65px;\"">B</div>"", ""key_press"": null, ""test_part"": ""test"", ""next_elem"": ""B"", ""trial_type"": ""html-keyboard-response"", ""trial_index"": 62, ""time_elapsed"": 126067, ""internal_node_id"": ""0.0-10.0-0.0-0.1"", ""uniqueId"": ""A16RCHJKE5A4G:3YMU66OBIR5DZD21AMPOK6A5W33GH3"", ""condition"": 0, ""counterbalance"": 0}"
A16RCHJKE5A4G:3YMU66OBIR5DZD21AMPOK6A5W33GH3,63,1580504260576,"{""rt"": null, ""stimulus"": ""<div style=\""font-size:65px;\"">B</div>"", ""key_press"": null, ""test_part"": ""test"", ""next_elem"": ""C"", ""trial_type"": ""html-keyboard-response"", ""trial_index"": 63, ""time_elapsed"": 127175, ""internal_node_id"": ""0.0-10.0-0.0-0.2"", ""uniqueId"": ""A16RCHJKE5A4G:3YMU66OBIR5DZD21AMPOK6A5W33GH3"", ""condition"": 0, ""counterbalance"": 0}"
A16RCHJKE5A4G:3YMU66OBIR5DZD21AMPOK6A5W33GH3,64,1580504261678,"{""rt"": null, ""stimulus"": ""<div style=\""font-size:65px;\"">C</div>"", ""key_press"": null, ""test_part"": ""test"", ""next_elem"": "" "", ""trial_type"": ""html-keyboard-response"", ""trial_index"": 64, ""time_elapsed"": 128276, ""internal_node_id"": ""0.0-10.0-0.0-0.3"", ""uniqueId"": ""A16RCHJKE5A4G:3YMU66OBIR5DZD21AMPOK6A5W33GH3"", ""condition"": 0, ""counterbalance"": 0}"
A16RCHJKE5A4G:3YMU66OBIR5DZD21AMPOK6A5W33GH3,65,1580504262785,"{""rt"": null, ""stimulus"": ""<div style=\""font-size:65px;\""> </div>"", ""key_press"": null, ""test_part"": ""test"", ""next_elem"": "" "", ""trial_type"": ""html-keyboard-response"", ""trial_index"": 65, ""time_elapsed"": 129384, ""internal_node_id"": ""0.0-10.0-0.0-0.4"", ""uniqueId"": ""A16RCHJKE5A4G:3YMU66OBIR5DZD21AMPOK6A5W33GH3"", ""condition"": 0, ""counterbalance"": 0}"
A16RCHJKE5A4G:3YMU66OBIR5DZD21AMPOK6A5W33GH3,66,1580504269011,"{""rt"": 5922.879999998258, ""responses"": ""{\""Q0\"":\""A\""}"", ""question_order"": ""[0]"", ""test_part"": ""prediction"", ""trial_type"": ""survey-multi-choice"", ""trial_index"": 66, ""time_elapsed"": 135610, ""internal_node_id"": ""0.0-10.0-1.0"", ""uniqueId"": ""A16RCHJKE5A4G:3YMU66OBIR5DZD21AMPOK6A5W33GH3"", ""condition"": 0, ""counterbalance"": 0}"
A16RCHJKE5A4G:3YMU66OBIR5DZD21AMPOK6A5W33GH3,67,1580504270448,"{""rt"": 1434.2199999955483, ""stimulus"": ""Incorrect!<p> The correct choice was:  "", ""button_pressed"": ""0"", ""test_part"": ""feedback"", ""trial_type"": ""html-button-response"", ""trial_index"": 67, ""time_elapsed"": 137047, ""internal_node_id"": ""0.0-10.0-2.0"", ""uniqueId"": ""A16RCHJKE5A4G:3YMU66OBIR5DZD21AMPOK6A5W33GH3"", ""condition"": 0, ""counterbalance"": 0}"
A16RCHJKE5A4G:3YMU66OBIR5DZD21AMPOK6A5W33GH3,68,1580504271253,"{""rt"": null, ""stimulus"": ""<div style=\""font-size:65px;\"">C</div>"", ""key_press"": null, ""test_part"": ""test"", ""next_elem"": ""C"", ""trial_type"": ""html-keyboard-response"", ""trial_index"": 68, ""time_elapsed"": 137852, ""internal_node_id"": ""0.0-11.0-0.0-0.0"", ""uniqueId"": ""A16RCHJKE5A4G:3YMU66OBIR5DZD21AMPOK6A5W33GH3"", ""condition"": 0, ""counterbalance"": 0}"
A16RCHJKE5A4G:3YMU66OBIR5DZD21AMPOK6A5W33GH3,69,1580504272359,"{""rt"": null, ""stimulus"": ""<div style=\""font-size:65px;\"">C</div>"", ""key_press"": null, ""test_part"": ""test"", ""next_elem"": ""C"", ""trial_type"": ""html-keyboard-response"", ""trial_index"": 69, ""time_elapsed"": 138958, ""internal_node_id"": ""0.0-11.0-0.0-0.1"", ""uniqueId"": ""A16RCHJKE5A4G:3YMU66OBIR5DZD21AMPOK6A5W33GH3"", ""condition"": 0, ""counterbalance"": 0}"
A16RCHJKE5A4G:3YMU66OBIR5DZD21AMPOK6A5W33GH3,70,1580504273466,"{""rt"": null, ""stimulus"": ""<div style=\""font-size:65px;\"">C</div>"", ""key_press"": null, ""test_part"": ""test"", ""next_elem"": ""B"", ""trial_type"": ""html-keyboard-response"", ""trial_index"": 70, ""time_elapsed"": 140065, ""internal_node_id"": ""0.0-11.0-0.0-0.2"", ""uniqueId"": ""A16RCHJKE5A4G:3YMU66OBIR5DZD21AMPOK6A5W33GH3"", ""condition"": 0, ""counterbalance"": 0}"
A16RCHJKE5A4G:3YMU66OBIR5DZD21AMPOK6A5W33GH3,71,1580504274573,"{""rt"": null, ""stimulus"": ""<div style=\""font-size:65px;\"">B</div>"", ""key_press"": null, ""test_part"": ""test"", ""next_elem"": ""B"", ""trial_type"": ""html-keyboard-response"", ""trial_index"": 71, ""time_elapsed"": 141172, ""internal_node_id"": ""0.0-11.0-0.0-0.3"", ""uniqueId"": ""A16RCHJKE5A4G:3YMU66OBIR5DZD21AMPOK6A5W33GH3"", ""condition"": 0, ""counterbalance"": 0}"
A16RCHJKE5A4G:3YMU66OBIR5DZD21AMPOK6A5W33GH3,72,1580504275681,"{""rt"": null, ""stimulus"": ""<div style=\""font-size:65px;\"">B</div>"", ""key_press"": null, ""test_part"": ""test"", ""next_elem"": "" "", ""trial_type"": ""html-keyboard-response"", ""trial_index"": 72, ""time_elapsed"": 142279, ""internal_node_id"": ""0.0-11.0-0.0-0.4"", ""uniqueId"": ""A16RCHJKE5A4G:3YMU66OBIR5DZD21AMPOK6A5W33GH3"", ""condition"": 0, ""counterbalance"": 0}"
A16RCHJKE5A4G:3YMU66OBIR5DZD21AMPOK6A5W33GH3,73,1580504280111,"{""rt"": 4127.250000005006, ""responses"": ""{\""Q0\"":\""A\""}"", ""question_order"": ""[0]"", ""test_part"": ""prediction"", ""trial_type"": ""survey-multi-choice"", ""trial_index"": 73, ""time_elapsed"": 146710, ""internal_node_id"": ""0.0-11.0-1.0"", ""uniqueId"": ""A16RCHJKE5A4G:3YMU66OBIR5DZD21AMPOK6A5W33GH3"", ""condition"": 0, ""counterbalance"": 0}"
A16RCHJKE5A4G:3YMU66OBIR5DZD21AMPOK6A5W33GH3,74,1580504281599,"{""rt"": 1484.8800000036135, ""stimulus"": ""Incorrect!<p> The correct choice was:  "", ""button_pressed"": ""0"", ""test_part"": ""feedback"", ""trial_type"": ""html-button-response"", ""trial_index"": 74, ""time_elapsed"": 148197, ""internal_node_id"": ""0.0-11.0-2.0"", ""uniqueId"": ""A16RCHJKE5A4G:3YMU66OBIR5DZD21AMPOK6A5W33GH3"", ""condition"": 0, ""counterbalance"": 0}"
A16RCHJKE5A4G:3YMU66OBIR5DZD21AMPOK6A5W33GH3,75,1580504282404,"{""rt"": null, ""stimulus"": ""<div style=\""font-size:65px;\"">C</div>"", ""key_press"": null, ""test_part"": ""test"", ""next_elem"": ""B"", ""trial_type"": ""html-keyboard-response"", ""trial_index"": 75, ""time_elapsed"": 149003, ""internal_node_id"": ""0.0-12.0-0.0-0.0"", ""uniqueId"": ""A16RCHJKE5A4G:3YMU66OBIR5DZD21AMPOK6A5W33GH3"", ""condition"": 0, ""counterbalance"": 0}"
A16RCHJKE5A4G:3YMU66OBIR5DZD21AMPOK6A5W33GH3,76,1580504283507,"{""rt"": null, ""stimulus"": ""<div style=\""font-size:65px;\"">B</div>"", ""key_press"": null, ""test_part"": ""test"", ""next_elem"": ""C"", ""trial_type"": ""html-keyboard-response"", ""trial_index"": 76, ""time_elapsed"": 150106, ""internal_node_id"": ""0.0-12.0-0.0-0.1"", ""uniqueId"": ""A16RCHJKE5A4G:3YMU66OBIR5DZD21AMPOK6A5W33GH3"", ""condition"": 0, ""counterbalance"": 0}"
A16RCHJKE5A4G:3YMU66OBIR5DZD21AMPOK6A5W33GH3,77,1580504284616,"{""rt"": null, ""stimulus"": ""<div style=\""font-size:65px;\"">C</div>"", ""key_press"": null, ""test_part"": ""test"", ""next_elem"": ""A"", ""trial_type"": ""html-keyboard-response"", ""trial_index"": 77, ""time_elapsed"": 151215, ""internal_node_id"": ""0.0-12.0-0.0-0.2"", ""uniqueId"": ""A16RCHJKE5A4G:3YMU66OBIR5DZD21AMPOK6A5W33GH3"", ""condition"": 0, ""counterbalance"": 0}"
A16RCHJKE5A4G:3YMU66OBIR5DZD21AMPOK6A5W33GH3,78,1580504285719,"{""rt"": null, ""stimulus"": ""<div style=\""font-size:65px;\"">A</div>"", ""key_press"": null, ""test_part"": ""test"", ""next_elem"": ""A"", ""trial_type"": ""html-keyboard-response"", ""trial_index"": 78, ""time_elapsed"": 152318, ""internal_node_id"": ""0.0-12.0-0.0-0.3"", ""uniqueId"": ""A16RCHJKE5A4G:3YMU66OBIR5DZD21AMPOK6A5W33GH3"", ""condition"": 0, ""counterbalance"": 0}"
A16RCHJKE5A4G:3YMU66OBIR5DZD21AMPOK6A5W33GH3,79,1580504286825,"{""rt"": null, ""stimulus"": ""<div style=\""font-size:65px;\"">A</div>"", ""key_press"": null, ""test_part"": ""test"", ""next_elem"": "" "", ""trial_type"": ""html-keyboard-response"", ""trial_index"": 79, ""time_elapsed"": 153424, ""internal_node_id"": ""0.0-12.0-0.0-0.4"", ""uniqueId"": ""A16RCHJKE5A4G:3YMU66OBIR5DZD21AMPOK6A5W33GH3"", ""condition"": 0, ""counterbalance"": 0}"
A16RCHJKE5A4G:3YMU66OBIR5DZD21AMPOK6A5W33GH3,80,1580504290924,"{""rt"": 3793.5950000101, ""responses"": ""{\""Q0\"":\""Equally likely\""}"", ""question_order"": ""[0]"", ""test_part"": ""prediction"", ""trial_type"": ""survey-multi-choice"", ""trial_index"": 80, ""time_elapsed"": 157523, ""internal_node_id"": ""0.0-12.0-1.0"", ""uniqueId"": ""A16RCHJKE5A4G:3YMU66OBIR5DZD21AMPOK6A5W33GH3"", ""condition"": 0, ""counterbalance"": 0}"
A16RCHJKE5A4G:3YMU66OBIR5DZD21AMPOK6A5W33GH3,81,1580504291799,"{""rt"": 872.1000000077765, ""stimulus"": """", ""button_pressed"": ""0"", ""test_part"": ""feedback"", ""trial_type"": ""html-button-response"", ""trial_index"": 81, ""time_elapsed"": 158398, ""internal_node_id"": ""0.0-12.0-2.0"", ""uniqueId"": ""A16RCHJKE5A4G:3YMU66OBIR5DZD21AMPOK6A5W33GH3"", ""condition"": 0, ""counterbalance"": 0}"
debugPB31KR:debugED0C7J,0,1580523243456,"{""rt"": 2008.5850000032224, ""responses"": ""{\""Q0\"":\""fds\""}"", ""test_part"": ""botcheck"", ""trial_type"": ""survey-text"", ""trial_index"": 0, ""time_elapsed"": 2035, ""internal_node_id"": ""0.0-0.0"", ""uniqueId"": ""debugPB31KR:debugED0C7J"", ""condition"": 0, ""counterbalance"": 0}"
debugPB31KR:debugED0C7J,1,1580523244651,"{""rt"": 1193.0149999679998, ""stimulus"": ""<p> <i> This session will last for 10min. Please complete it in full screen mode. </p><p> Do this experiment in one go, otherwise it will time out and we will </p><p> not be able to pay you. </i> </p> "", ""button_pressed"": ""0"", ""test_part"": ""instructions"", ""trial_type"": ""html-button-response"", ""trial_index"": 1, ""time_elapsed"": 3230, ""internal_node_id"": ""0.0-1.0"", ""uniqueId"": ""debugPB31KR:debugED0C7J"", ""condition"": 0, ""counterbalance"": 0}"
debugPB31KR:debugED0C7J,2,1580523247081,"{""rt"": 1425.684999965597, ""stimulus"": ""<p> In each trial, you will see some letters (A, B or C) appearing one-by-one. </p><p> <b> Your task is to stop the sequence when 1) you feel like you can predict the next letter <i>or</i> </p><p> 2) you feel like there is no structure and the sequence is unpredictable. </b> </p><p> Some sequences you will see have some structure, and some don't, so they will be more or less predictable. </p><p> <br> Let us practice a bit before we move on to the actual experiment. </p> <br />"", ""button_pressed"": ""0"", ""test_part"": ""instructions"", ""trial_type"": ""html-button-response"", ""trial_index"": 2, ""time_elapsed"": 5660, ""internal_node_id"": ""0.0-2.0"", ""uniqueId"": ""debugPB31KR:debugED0C7J"", ""condition"": 0, ""counterbalance"": 0}"
debugPB31KR:debugED0C7J,3,1580523250124,"{""rt"": 2041.4699999964796, ""stimulus"": ""<p> Remember: Some sequences will be very predictable, some will be somewhat predictable, </p><p> while others will have no structure at all. Stop the sequence by pressing the spacebar  </p><p> whenever you feel you can predict the next letter, or you decide that the sequence is unpredictable. </p><p> When you stop the sequence, you will be asked to predict the next letter, and you will receive feedback. </p><p> You can also say that the sequence was unpredictable by selecting 'Equally likely'. In this case you will receive no feedback. </p><p> <br> Let us practice. </br> <p>"", ""button_pressed"": ""0"", ""test_part"": ""instructions"", ""trial_type"": ""html-button-response"", ""trial_index"": 3, ""time_elapsed"": 8703, ""internal_node_id"": ""0.0-3.0"", ""uniqueId"": ""debugPB31KR:debugED0C7J"", ""condition"": 0, ""counterbalance"": 0}"
debugPB31KR:debugED0C7J,4,1580523251931,"{""rt"": null, ""stimulus"": ""<div style=\""font-size:65px;\"">  <p> </p>A</div>"", ""key_press"": null, ""test_part"": ""training"", ""next_elem"": ""B"", ""trial_type"": ""html-keyboard-response"", ""trial_index"": 4, ""time_elapsed"": 10510, ""internal_node_id"": ""0.0-4.0-0.0-0.0"", ""uniqueId"": ""debugPB31KR:debugED0C7J"", ""condition"": 0, ""counterbalance"": 0}"
debugPB31KR:debugED0C7J,5,1580523253034,"{""rt"": null, ""stimulus"": ""<div style=\""font-size:65px;\"">  <p> </p>B</div>"", ""key_press"": null, ""test_part"": ""training"", ""next_elem"": ""C"", ""trial_type"": ""html-keyboard-response"", ""trial_index"": 5, ""time_elapsed"": 11613, ""internal_node_id"": ""0.0-4.0-0.0-0.1"", ""uniqueId"": ""debugPB31KR:debugED0C7J"", ""condition"": 0, ""counterbalance"": 0}"
debugPB31KR:debugED0C7J,6,1580523254141,"{""rt"": null, ""stimulus"": ""<div style=\""font-size:65px;\"">  <p> </p>C</div>"", ""key_press"": null, ""test_part"": ""training"", ""next_elem"": ""A"", ""trial_type"": ""html-keyboard-response"", ""trial_index"": 6, ""time_elapsed"": 12720, ""internal_node_id"": ""0.0-4.0-0.0-0.2"", ""uniqueId"": ""debugPB31KR:debugED0C7J"", ""condition"": 0, ""counterbalance"": 0}"
debugPB31KR:debugED0C7J,7,1580523255249,"{""rt"": null, ""stimulus"": ""<div style=\""font-size:65px;\"">  <p> </p>A</div>"", ""key_press"": null, ""test_part"": ""training"", ""next_elem"": ""B"", ""trial_type"": ""html-keyboard-response"", ""trial_index"": 7, ""time_elapsed"": 13828, ""internal_node_id"": ""0.0-4.0-0.0-0.3"", ""uniqueId"": ""debugPB31KR:debugED0C7J"", ""condition"": 0, ""counterbalance"": 0}"
debugPB31KR:debugED0C7J,8,1580523256353,"{""rt"": null, ""stimulus"": ""<div style=\""font-size:65px;\"">  <p> </p>B</div>"", ""key_press"": null, ""test_part"": ""training"", ""next_elem"": ""C"", ""trial_type"": ""html-keyboard-response"", ""trial_index"": 8, ""time_elapsed"": 14932, ""internal_node_id"": ""0.0-4.0-0.0-0.4"", ""uniqueId"": ""debugPB31KR:debugED0C7J"", ""condition"": 0, ""counterbalance"": 0}"
debugPB31KR:debugED0C7J,9,1580523257017,"{""rt"": 362.64499998651445, ""stimulus"": ""<div style=\""font-size:65px;\"">  <p> </p>C</div>"", ""key_press"": 32, ""test_part"": ""training"", ""next_elem"": ""A"", ""trial_type"": ""html-keyboard-response"", ""trial_index"": 9, ""time_elapsed"": 15596, ""internal_node_id"": ""0.0-4.0-0.0-0.5"", ""uniqueId"": ""debugPB31KR:debugED0C7J"", ""condition"": 0, ""counterbalance"": 0}"
debugPB31KR:debugED0C7J,10,1580523259264,"{""rt"": 1943.6500000301749, ""responses"": ""{\""Q0\"":\""A\""}"", ""question_order"": ""[0]"", ""test_part"": ""prediction"", ""trial_type"": ""survey-multi-choice"", ""trial_index"": 10, ""time_elapsed"": 17843, ""internal_node_id"": ""0.0-4.0-1.0"", ""uniqueId"": ""debugPB31KR:debugED0C7J"", ""condition"": 0, ""counterbalance"": 0}"
debugPB31KR:debugED0C7J,11,1580523260152,"{""rt"": 883.9999999618158, ""stimulus"": ""Correct!"", ""button_pressed"": ""0"", ""test_part"": ""feedback"", ""trial_type"": ""html-button-response"", ""trial_index"": 11, ""time_elapsed"": 18731, ""internal_node_id"": ""0.0-4.0-2.0"", ""uniqueId"": ""debugPB31KR:debugED0C7J"", ""condition"": 0, ""counterbalance"": 0}"
debugPB31KR:debugED0C7J,12,1580523260954,"{""rt"": null, ""stimulus"": ""<div style=\""font-size:65px;\"">  <p> </p>A</div>"", ""key_press"": null, ""test_part"": ""training"", ""next_elem"": ""A"", ""trial_type"": ""html-keyboard-response"", ""trial_index"": 12, ""time_elapsed"": 19533, ""internal_node_id"": ""0.0-5.0-0.0-0.0"", ""uniqueId"": ""debugPB31KR:debugED0C7J"", ""condition"": 0, ""counterbalance"": 0}"
debugPB31KR:debugED0C7J,13,1580523262055,"{""rt"": null, ""stimulus"": ""<div style=\""font-size:65px;\"">  <p> </p>A</div>"", ""key_press"": null, ""test_part"": ""training"", ""next_elem"": ""A"", ""trial_type"": ""html-keyboard-response"", ""trial_index"": 13, ""time_elapsed"": 20634, ""internal_node_id"": ""0.0-5.0-0.0-0.1"", ""uniqueId"": ""debugPB31KR:debugED0C7J"", ""condition"": 0, ""counterbalance"": 0}"
debugPB31KR:debugED0C7J,14,1580523263162,"{""rt"": null, ""stimulus"": ""<div style=\""font-size:65px;\"">  <p> </p>A</div>"", ""key_press"": null, ""test_part"": ""training"", ""next_elem"": ""A"", ""trial_type"": ""html-keyboard-response"", ""trial_index"": 14, ""time_elapsed"": 21741, ""internal_node_id"": ""0.0-5.0-0.0-0.2"", ""uniqueId"": ""debugPB31KR:debugED0C7J"", ""condition"": 0, ""counterbalance"": 0}"
debugPB31KR:debugED0C7J,15,1580523264271,"{""rt"": null, ""stimulus"": ""<div style=\""font-size:65px;\"">  <p> </p>A</div>"", ""key_press"": null, ""test_part"": ""training"", ""next_elem"": ""A"", ""trial_type"": ""html-keyboard-response"", ""trial_index"": 15, ""time_elapsed"": 22850, ""internal_node_id"": ""0.0-5.0-0.0-0.3"", ""uniqueId"": ""debugPB31KR:debugED0C7J"", ""condition"": 0, ""counterbalance"": 0}"
debugPB31KR:debugED0C7J,16,1580523264940,"{""rt"": 364.4349999958649, ""stimulus"": ""<div style=\""font-size:65px;\"">  <p> </p>A</div>"", ""key_press"": 32, ""test_part"": ""training"", ""next_elem"": ""A"", ""trial_type"": ""html-keyboard-response"", ""trial_index"": 16, ""time_elapsed"": 23519, ""internal_node_id"": ""0.0-5.0-0.0-0.4"", ""uniqueId"": ""debugPB31KR:debugED0C7J"", ""condition"": 0, ""counterbalance"": 0}"
debugPB31KR:debugED0C7J,17,1580523267222,"{""rt"": 1977.9550000093877, ""responses"": ""{\""Q0\"":\""A\""}"", ""question_order"": ""[0]"", ""test_part"": ""prediction"", ""trial_type"": ""survey-multi-choice"", ""trial_index"": 17, ""time_elapsed"": 25801, ""internal_node_id"": ""0.0-5.0-1.0"", ""uniqueId"": ""debugPB31KR:debugED0C7J"", ""condition"": 0, ""counterbalance"": 0}"
debugPB31KR:debugED0C7J,18,1580523268206,"{""rt"": 979.5600000070408, ""stimulus"": ""Correct!"", ""button_pressed"": ""0"", ""test_part"": ""feedback"", ""trial_type"": ""html-button-response"", ""trial_index"": 18, ""time_elapsed"": 26785, ""internal_node_id"": ""0.0-5.0-2.0"", ""uniqueId"": ""debugPB31KR:debugED0C7J"", ""condition"": 0, ""counterbalance"": 0}"
debugPB31KR:debugED0C7J,19,1580523269007,"{""rt"": null, ""stimulus"": ""<div style=\""font-size:65px;\"">A</div>"", ""key_press"": null, ""test_part"": ""training"", ""next_elem"": ""B"", ""trial_type"": ""html-keyboard-response"", ""trial_index"": 19, ""time_elapsed"": 27586, ""internal_node_id"": ""0.0-6.0-0.0-0.0"", ""uniqueId"": ""debugPB31KR:debugED0C7J"", ""condition"": 0, ""counterbalance"": 0}"
debugPB31KR:debugED0C7J,20,1580523270116,"{""rt"": null, ""stimulus"": ""<div style=\""font-size:65px;\"">B</div>"", ""key_press"": null, ""test_part"": ""training"", ""next_elem"": ""B"", ""trial_type"": ""html-keyboard-response"", ""trial_index"": 20, ""time_elapsed"": 28695, ""internal_node_id"": ""0.0-6.0-0.0-0.1"", ""uniqueId"": ""debugPB31KR:debugED0C7J"", ""condition"": 0, ""counterbalance"": 0}"
debugPB31KR:debugED0C7J,21,1580523271224,"{""rt"": null, ""stimulus"": ""<div style=\""font-size:65px;\"">B</div>"", ""key_press"": null, ""test_part"": ""training"", ""next_elem"": ""C"", ""trial_type"": ""html-keyboard-response"", ""trial_index"": 21, ""time_elapsed"": 29803, ""internal_node_id"": ""0.0-6.0-0.0-0.2"", ""uniqueId"": ""debugPB31KR:debugED0C7J"", ""condition"": 0, ""counterbalance"": 0}"
debugPB31KR:debugED0C7J,22,1580523272331,"{""rt"": null, ""stimulus"": ""<div style=\""font-size:65px;\"">C</div>"", ""key_press"": null, ""test_part"": ""training"", ""next_elem"": ""B"", ""trial_type"": ""html-keyboard-response"", ""trial_index"": 22, ""time_elapsed"": 30910, ""internal_node_id"": ""0.0-6.0-0.0-0.3"", ""uniqueId"": ""debugPB31KR:debugED0C7J"", ""condition"": 0, ""counterbalance"": 0}"
debugPB31KR:debugED0C7J,23,1580523273438,"{""rt"": null, ""stimulus"": ""<div style=\""font-size:65px;\"">B</div>"", ""key_press"": null, ""test_part"": ""training"", ""next_elem"": ""A"", ""trial_type"": ""html-keyboard-response"", ""trial_index"": 23, ""time_elapsed"": 32017, ""internal_node_id"": ""0.0-6.0-0.0-0.4"", ""uniqueId"": ""debugPB31KR:debugED0C7J"", ""condition"": 0, ""counterbalance"": 0}"
debugPB31KR:debugED0C7J,24,1580523274100,"{""rt"": 358.88999997405335, ""stimulus"": ""<div style=\""font-size:65px;\"">A</div>"", ""key_press"": 32, ""test_part"": ""training"", ""next_elem"": ""C"", ""trial_type"": ""html-keyboard-response"", ""trial_index"": 24, ""time_elapsed"": 32679, ""internal_node_id"": ""0.0-6.0-0.0-0.5"", ""uniqueId"": ""debugPB31KR:debugED0C7J"", ""condition"": 0, ""counterbalance"": 0}"
debugPB31KR:debugED0C7J,25,1580523275908,"{""rt"": 1505.4499999969266, ""responses"": ""{\""Q0\"":\""Equally likely\""}"", ""question_order"": ""[0]"", ""test_part"": ""prediction"", ""trial_type"": ""survey-multi-choice"", ""trial_index"": 25, ""time_elapsed"": 34487, ""internal_node_id"": ""0.0-6.0-1.0"", ""uniqueId"": ""debugPB31KR:debugED0C7J"", ""condition"": 0, ""counterbalance"": 0}"
debugPB31KR:debugED0C7J,26,1580523276876,"{""rt"": 961.6549999918789, ""stimulus"": """", ""button_pressed"": ""0"", ""test_part"": ""feedback"", ""trial_type"": ""html-button-response"", ""trial_index"": 26, ""time_elapsed"": 35455, ""internal_node_id"": ""0.0-6.0-2.0"", ""uniqueId"": ""debugPB31KR:debugED0C7J"", ""condition"": 0, ""counterbalance"": 0}"
debugPB31KR:debugED0C7J,27,1580523283715,"{""rt"": 6837.850000010803, ""stimulus"": ""<p> You are now ready to proceed with the actual experiment. It will take about 8min from now. </p>"", ""button_pressed"": ""0"", ""test_part"": ""instructions"", ""trial_type"": ""html-button-response"", ""trial_index"": 27, ""time_elapsed"": 42294, ""internal_node_id"": ""0.0-7.0"", ""uniqueId"": ""debugPB31KR:debugED0C7J"", ""condition"": 0, ""counterbalance"": 0}"
debugPB31KR:debugED0C7J,28,1580523284521,"{""rt"": null, ""stimulus"": ""<div style=\""font-size:65px;\"">B</div>"", ""key_press"": null, ""test_part"": ""test"", ""next_elem"": ""A"", ""trial_type"": ""html-keyboard-response"", ""trial_index"": 28, ""time_elapsed"": 43100, ""internal_node_id"": ""0.0-8.0-0.0-0.0"", ""uniqueId"": ""debugPB31KR:debugED0C7J"", ""condition"": 0, ""counterbalance"": 0}"
debugPB31KR:debugED0C7J,29,1580523285628,"{""rt"": null, ""stimulus"": ""<div style=\""font-size:65px;\"">A</div>"", ""key_press"": null, ""test_part"": ""test"", ""next_elem"": ""A"", ""trial_type"": ""html-keyboard-response"", ""trial_index"": 29, ""time_elapsed"": 44206, ""internal_node_id"": ""0.0-8.0-0.0-0.1"", ""uniqueId"": ""debugPB31KR:debugED0C7J"", ""condition"": 0, ""counterbalance"": 0}"
debugPB31KR:debugED0C7J,30,1580523286731,"{""rt"": null, ""stimulus"": ""<div style=\""font-size:65px;\"">A</div>"", ""key_press"": null, ""test_part"": ""test"", ""next_elem"": ""C"", ""trial_type"": ""html-keyboard-response"", ""trial_index"": 30, ""time_elapsed"": 45310, ""internal_node_id"": ""0.0-8.0-0.0-0.2"", ""uniqueId"": ""debugPB31KR:debugED0C7J"", ""condition"": 0, ""counterbalance"": 0}"
debugPB31KR:debugED0C7J,31,1580523287838,"{""rt"": null, ""stimulus"": ""<div style=\""font-size:65px;\"">C</div>"", ""key_press"": null, ""test_part"": ""test"", ""next_elem"": ""C"", ""trial_type"": ""html-keyboard-response"", ""trial_index"": 31, ""time_elapsed"": 46416, ""internal_node_id"": ""0.0-8.0-0.0-0.3"", ""uniqueId"": ""debugPB31KR:debugED0C7J"", ""condition"": 0, ""counterbalance"": 0}"
debugPB31KR:debugED0C7J,32,1580523288947,"{""rt"": null, ""stimulus"": ""<div style=\""font-size:65px;\"">C</div>"", ""key_press"": null, ""test_part"": ""test"", ""next_elem"": ""C"", ""trial_type"": ""html-keyboard-response"", ""trial_index"": 32, ""time_elapsed"": 47526, ""internal_node_id"": ""0.0-8.0-0.0-0.4"", ""uniqueId"": ""debugPB31KR:debugED0C7J"", ""condition"": 0, ""counterbalance"": 0}"
debugPB31KR:debugED0C7J,33,1580523290054,"{""rt"": null, ""stimulus"": ""<div style=\""font-size:65px;\"">C</div>"", ""key_press"": null, ""test_part"": ""test"", ""next_elem"": ""C"", ""trial_type"": ""html-keyboard-response"", ""trial_index"": 33, ""time_elapsed"": 48633, ""internal_node_id"": ""0.0-8.0-0.0-0.5"", ""uniqueId"": ""debugPB31KR:debugED0C7J"", ""condition"": 0, ""counterbalance"": 0}"
debugPB31KR:debugED0C7J,34,1580523291157,"{""rt"": null, ""stimulus"": ""<div style=\""font-size:65px;\"">C</div>"", ""key_press"": null, ""test_part"": ""test"", ""next_elem"": ""C"", ""trial_type"": ""html-keyboard-response"", ""trial_index"": 34, ""time_elapsed"": 49736, ""internal_node_id"": ""0.0-8.0-0.0-0.6"", ""uniqueId"": ""debugPB31KR:debugED0C7J"", ""condition"": 0, ""counterbalance"": 0}"
debugPB31KR:debugED0C7J,35,1580523292264,"{""rt"": null, ""stimulus"": ""<div style=\""font-size:65px;\"">C</div>"", ""key_press"": null, ""test_part"": ""test"", ""next_elem"": ""A"", ""trial_type"": ""html-keyboard-response"", ""trial_index"": 35, ""time_elapsed"": 50843, ""internal_node_id"": ""0.0-8.0-0.0-0.7"", ""uniqueId"": ""debugPB31KR:debugED0C7J"", ""condition"": 0, ""counterbalance"": 0}"
debugPB31KR:debugED0C7J,36,1580523293367,"{""rt"": null, ""stimulus"": ""<div style=\""font-size:65px;\"">A</div>"", ""key_press"": null, ""test_part"": ""test"", ""next_elem"": ""B"", ""trial_type"": ""html-keyboard-response"", ""trial_index"": 36, ""time_elapsed"": 51946, ""internal_node_id"": ""0.0-8.0-0.0-0.8"", ""uniqueId"": ""debugPB31KR:debugED0C7J"", ""condition"": 0, ""counterbalance"": 0}"
debugPB31KR:debugED0C7J,37,1580523294475,"{""rt"": null, ""stimulus"": ""<div style=\""font-size:65px;\"">B</div>"", ""key_press"": null, ""test_part"": ""test"", ""next_elem"": ""A"", ""trial_type"": ""html-keyboard-response"", ""trial_index"": 37, ""time_elapsed"": 53054, ""internal_node_id"": ""0.0-8.0-0.0-0.9"", ""uniqueId"": ""debugPB31KR:debugED0C7J"", ""condition"": 0, ""counterbalance"": 0}"
debugPB31KR:debugED0C7J,38,1580523295581,"{""rt"": null, ""stimulus"": ""<div style=\""font-size:65px;\"">A</div>"", ""key_press"": null, ""test_part"": ""test"", ""next_elem"": ""B"", ""trial_type"": ""html-keyboard-response"", ""trial_index"": 38, ""time_elapsed"": 54159, ""internal_node_id"": ""0.0-8.0-0.0-0.10"", ""uniqueId"": ""debugPB31KR:debugED0C7J"", ""condition"": 0, ""counterbalance"": 0}"
debugPB31KR:debugED0C7J,39,1580523296685,"{""rt"": null, ""stimulus"": ""<div style=\""font-size:65px;\"">B</div>"", ""key_press"": null, ""test_part"": ""test"", ""next_elem"": ""A"", ""trial_type"": ""html-keyboard-response"", ""trial_index"": 39, ""time_elapsed"": 55264, ""internal_node_id"": ""0.0-8.0-0.0-0.11"", ""uniqueId"": ""debugPB31KR:debugED0C7J"", ""condition"": 0, ""counterbalance"": 0}"
debugPB31KR:debugED0C7J,40,1580523297793,"{""rt"": null, ""stimulus"": ""<div style=\""font-size:65px;\"">A</div>"", ""key_press"": null, ""test_part"": ""test"", ""next_elem"": ""B"", ""trial_type"": ""html-keyboard-response"", ""trial_index"": 40, ""time_elapsed"": 56372, ""internal_node_id"": ""0.0-8.0-0.0-0.12"", ""uniqueId"": ""debugPB31KR:debugED0C7J"", ""condition"": 0, ""counterbalance"": 0}"
debugPB31KR:debugED0C7J,41,1580523298901,"{""rt"": null, ""stimulus"": ""<div style=\""font-size:65px;\"">B</div>"", ""key_press"": null, ""test_part"": ""test"", ""next_elem"": ""A"", ""trial_type"": ""html-keyboard-response"", ""trial_index"": 41, ""time_elapsed"": 57480, ""internal_node_id"": ""0.0-8.0-0.0-0.13"", ""uniqueId"": ""debugPB31KR:debugED0C7J"", ""condition"": 0, ""counterbalance"": 0}"
debugPB31KR:debugED0C7J,42,1580523299553,"{""rt"": 348.46499998820946, ""stimulus"": ""<div style=\""font-size:65px;\"">A</div>"", ""key_press"": 32, ""test_part"": ""test"", ""next_elem"": ""B"", ""trial_type"": ""html-keyboard-response"", ""trial_index"": 42, ""time_elapsed"": 58132, ""internal_node_id"": ""0.0-8.0-0.0-0.14"", ""uniqueId"": ""debugPB31KR:debugED0C7J"", ""condition"": 0, ""counterbalance"": 0}"
debugPB31KR:debugED0C7J,43,1580523301426,"{""rt"": 1570.5700000398792, ""responses"": ""{\""Q0\"":\""C\""}"", ""question_order"": ""[0]"", ""test_part"": ""prediction"", ""trial_type"": ""survey-multi-choice"", ""trial_index"": 43, ""time_elapsed"": 60005, ""internal_node_id"": ""0.0-8.0-1.0"", ""uniqueId"": ""debugPB31KR:debugED0C7J"", ""condition"": 0, ""counterbalance"": 0}"
debugADZPPI:debugR0YDRV,0,1580523383813,"{""rt"": 2196.204999985639, ""responses"": ""{\""Q0\"":\""fds\""}"", ""test_part"": ""botcheck"", ""trial_type"": ""survey-text"", ""trial_index"": 0, ""time_elapsed"": 2218, ""internal_node_id"": ""0.0-0.0"", ""uniqueId"": ""debugADZPPI:debugR0YDRV"", ""condition"": 0, ""counterbalance"": 0}"
debugADZPPI:debugR0YDRV,1,1580523385242,"{""rt"": 1427.6199999731034, ""stimulus"": ""<p> <i> This session will last for 10min. Please complete it in full screen mode. </p><p> Do this experiment in one go, otherwise it will time out and we will </p><p> not be able to pay you. </i> </p> "", ""button_pressed"": ""0"", ""test_part"": ""instructions"", ""trial_type"": ""html-button-response"", ""trial_index"": 1, ""time_elapsed"": 3648, ""internal_node_id"": ""0.0-1.0"", ""uniqueId"": ""debugADZPPI:debugR0YDRV"", ""condition"": 0, ""counterbalance"": 0}"
debugADZPPI:debugR0YDRV,2,1580523392783,"{""rt"": 6537.650000012945, ""stimulus"": ""<p> In each trial, you will see some letters (A, B or C) appearing one-by-one. </p><p> <b> Your task is to stop the sequence when 1) you feel like you can predict the next letter <i>or</i> </p><p> 2) you feel like there is no structure and the sequence is unpredictable. </b> </p><p> Some sequences you will see have some structure, and some don't, so they will be more or less predictable. </p><p> <br> Let us practice a bit before we move on to the actual experiment. </p> <br />"", ""button_pressed"": ""0"", ""test_part"": ""instructions"", ""trial_type"": ""html-button-response"", ""trial_index"": 2, ""time_elapsed"": 11189, ""internal_node_id"": ""0.0-2.0"", ""uniqueId"": ""debugADZPPI:debugR0YDRV"", ""condition"": 0, ""counterbalance"": 0}"
debugADZPPI:debugR0YDRV,3,1580523395389,"{""rt"": 1602.1949999849312, ""stimulus"": ""<p> Remember: Some sequences will be very predictable, some will be somewhat predictable, </p><p> while others will have no structure at all. Stop the sequence by pressing the spacebar  </p><p> whenever you feel you can predict the next letter, or you decide that the sequence is unpredictable. </p><p> When you stop the sequence, you will be asked to predict the next letter, and you will receive feedback. </p><p> You can also say that the sequence was unpredictable by selecting 'Equally likely'. In this case you will receive no feedback. </p><p> <br> Let us practice. </br> <p>"", ""button_pressed"": ""0"", ""test_part"": ""instructions"", ""trial_type"": ""html-button-response"", ""trial_index"": 3, ""time_elapsed"": 13795, ""internal_node_id"": ""0.0-3.0"", ""uniqueId"": ""debugADZPPI:debugR0YDRV"", ""condition"": 0, ""counterbalance"": 0}"
debugADZPPI:debugR0YDRV,4,1580523397192,"{""rt"": null, ""stimulus"": ""<div style=\""font-size:65px;\"">  <p> </p>A</div>"", ""key_press"": null, ""test_part"": ""training"", ""next_elem"": ""B"", ""trial_type"": ""html-keyboard-response"", ""trial_index"": 4, ""time_elapsed"": 15598, ""internal_node_id"": ""0.0-4.0-0.0-0.0"", ""uniqueId"": ""debugADZPPI:debugR0YDRV"", ""condition"": 0, ""counterbalance"": 0}"
debugADZPPI:debugR0YDRV,5,1580523398294,"{""rt"": null, ""stimulus"": ""<div style=\""font-size:65px;\"">  <p> </p>B</div>"", ""key_press"": null, ""test_part"": ""training"", ""next_elem"": ""C"", ""trial_type"": ""html-keyboard-response"", ""trial_index"": 5, ""time_elapsed"": 16700, ""internal_node_id"": ""0.0-4.0-0.0-0.1"", ""uniqueId"": ""debugADZPPI:debugR0YDRV"", ""condition"": 0, ""counterbalance"": 0}"
debugADZPPI:debugR0YDRV,6,1580523399397,"{""rt"": null, ""stimulus"": ""<div style=\""font-size:65px;\"">  <p> </p>C</div>"", ""key_press"": null, ""test_part"": ""training"", ""next_elem"": ""A"", ""trial_type"": ""html-keyboard-response"", ""trial_index"": 6, ""time_elapsed"": 17803, ""internal_node_id"": ""0.0-4.0-0.0-0.2"", ""uniqueId"": ""debugADZPPI:debugR0YDRV"", ""condition"": 0, ""counterbalance"": 0}"
debugADZPPI:debugR0YDRV,7,1580523400503,"{""rt"": null, ""stimulus"": ""<div style=\""font-size:65px;\"">  <p> </p>A</div>"", ""key_press"": null, ""test_part"": ""training"", ""next_elem"": ""B"", ""trial_type"": ""html-keyboard-response"", ""trial_index"": 7, ""time_elapsed"": 18909, ""internal_node_id"": ""0.0-4.0-0.0-0.3"", ""uniqueId"": ""debugADZPPI:debugR0YDRV"", ""condition"": 0, ""counterbalance"": 0}"
debugADZPPI:debugR0YDRV,8,1580523401156,"{""rt"": 351.1300000245683, ""stimulus"": ""<div style=\""font-size:65px;\"">  <p> </p>B</div>"", ""key_press"": 32, ""test_part"": ""training"", ""next_elem"": ""C"", ""trial_type"": ""html-keyboard-response"", ""trial_index"": 8, ""time_elapsed"": 19562, ""internal_node_id"": ""0.0-4.0-0.0-0.4"", ""uniqueId"": ""debugADZPPI:debugR0YDRV"", ""condition"": 0, ""counterbalance"": 0}"
debugADZPPI:debugR0YDRV,9,1580523403529,"{""rt"": 2071.730000025127, ""responses"": ""{\""Q0\"":\""C\""}"", ""question_order"": ""[0]"", ""test_part"": ""prediction"", ""trial_type"": ""survey-multi-choice"", ""trial_index"": 9, ""time_elapsed"": 21935, ""internal_node_id"": ""0.0-4.0-1.0"", ""uniqueId"": ""debugADZPPI:debugR0YDRV"", ""condition"": 0, ""counterbalance"": 0}"
debugZLR3DP:debugUSTGCR,0,1580523512666,"{""rt"": 1501.4150000060908, ""responses"": ""{\""Q0\"":\""sdf\""}"", ""test_part"": ""botcheck"", ""trial_type"": ""survey-text"", ""trial_index"": 0, ""time_elapsed"": 1530, ""internal_node_id"": ""0.0-0.0"", ""uniqueId"": ""debugZLR3DP:debugUSTGCR"", ""condition"": 0, ""counterbalance"": 0}"
debugZLR3DP:debugUSTGCR,1,1580523513827,"{""rt"": 1159.9799999967217, ""stimulus"": ""<p> <i> This session will last for 10min. Please complete it in full screen mode. </p><p> Do this experiment in one go, otherwise it will time out and we will </p><p> not be able to pay you. </i> </p> "", ""button_pressed"": ""0"", ""test_part"": ""instructions"", ""trial_type"": ""html-button-response"", ""trial_index"": 1, ""time_elapsed"": 2692, ""internal_node_id"": ""0.0-1.0"", ""uniqueId"": ""debugZLR3DP:debugUSTGCR"", ""condition"": 0, ""counterbalance"": 0}"
debugZLR3DP:debugUSTGCR,2,1580523522247,"{""rt"": 7413.650000002235, ""stimulus"": ""<p> In each trial, you will see some letters (A, B or C) appearing one-by-one. </p><p> <b> Your task is to stop the sequence when 1) you feel like you can predict the next letter <i>or</i> </p><p> 2) you feel like there is no structure and the sequence is unpredictable. </b> </p><p> Some sequences you will see have some structure, and some don't, so they will be more or less predictable. </p><p> <br> Let us practice a bit before we move on to the actual experiment. </p> <br />"", ""button_pressed"": ""0"", ""test_part"": ""instructions"", ""trial_type"": ""html-button-response"", ""trial_index"": 2, ""time_elapsed"": 11112, ""internal_node_id"": ""0.0-2.0"", ""uniqueId"": ""debugZLR3DP:debugUSTGCR"", ""condition"": 0, ""counterbalance"": 0}"
debugZLR3DP:debugUSTGCR,3,1580523524048,"{""rt"": 798.3850000309758, ""stimulus"": ""<p> Remember: Some sequences will be very predictable, some will be somewhat predictable, </p><p> while others will have no structure at all. Stop the sequence by pressing the spacebar  </p><p> whenever you feel you can predict the next letter, or you decide that the sequence is unpredictable. </p><p> When you stop the sequence, you will be asked to predict the next letter, and you will receive feedback. </p><p> You can also say that the sequence was unpredictable by selecting 'Equally likely'. In this case you will receive no feedback. </p><p> <br> Let us practice. </br> <p>"", ""button_pressed"": ""0"", ""test_part"": ""instructions"", ""trial_type"": ""html-button-response"", ""trial_index"": 3, ""time_elapsed"": 12913, ""internal_node_id"": ""0.0-3.0"", ""uniqueId"": ""debugZLR3DP:debugUSTGCR"", ""condition"": 0, ""counterbalance"": 0}"
debugZLR3DP:debugUSTGCR,4,1580523525854,"{""rt"": null, ""stimulus"": ""<div style=\""font-size:65px;\"">  <p> </p>A</div>"", ""key_press"": null, ""test_part"": ""training"", ""next_elem"": ""B"", ""trial_type"": ""html-keyboard-response"", ""trial_index"": 4, ""time_elapsed"": 14718, ""internal_node_id"": ""0.0-4.0-0.0-0.0"", ""uniqueId"": ""debugZLR3DP:debugUSTGCR"", ""condition"": 0, ""counterbalance"": 0}"
debugZLR3DP:debugUSTGCR,5,1580523526961,"{""rt"": null, ""stimulus"": ""<div style=\""font-size:65px;\"">  <p> </p>B</div>"", ""key_press"": null, ""test_part"": ""training"", ""next_elem"": ""C"", ""trial_type"": ""html-keyboard-response"", ""trial_index"": 5, ""time_elapsed"": 15826, ""internal_node_id"": ""0.0-4.0-0.0-0.1"", ""uniqueId"": ""debugZLR3DP:debugUSTGCR"", ""condition"": 0, ""counterbalance"": 0}"
debugZLR3DP:debugUSTGCR,6,1580523528065,"{""rt"": null, ""stimulus"": ""<div style=\""font-size:65px;\"">  <p> </p>C</div>"", ""key_press"": null, ""test_part"": ""training"", ""next_elem"": ""A"", ""trial_type"": ""html-keyboard-response"", ""trial_index"": 6, ""time_elapsed"": 16930, ""internal_node_id"": ""0.0-4.0-0.0-0.2"", ""uniqueId"": ""debugZLR3DP:debugUSTGCR"", ""condition"": 0, ""counterbalance"": 0}"
debugZLR3DP:debugUSTGCR,7,1580523528640,"{""rt"": 269.8850000160746, ""stimulus"": ""<div style=\""font-size:65px;\"">  <p> </p>A</div>"", ""key_press"": 32, ""test_part"": ""training"", ""next_elem"": ""B"", ""trial_type"": ""html-keyboard-response"", ""trial_index"": 7, ""time_elapsed"": 17505, ""internal_node_id"": ""0.0-4.0-0.0-0.3"", ""uniqueId"": ""debugZLR3DP:debugUSTGCR"", ""condition"": 0, ""counterbalance"": 0}"
debugZLR3DP:debugUSTGCR,8,1580523530874,"{""rt"": 1932.6000000000931, ""responses"": ""{\""Q0\"":\""A\""}"", ""question_order"": ""[0]"", ""test_part"": ""prediction"", ""trial_type"": ""survey-multi-choice"", ""trial_index"": 8, ""time_elapsed"": 19739, ""internal_node_id"": ""0.0-4.0-1.0"", ""uniqueId"": ""debugZLR3DP:debugUSTGCR"", ""condition"": 0, ""counterbalance"": 0}"
debugZLR3DP:debugUSTGCR,9,1580523531723,"{""rt"": 844.5099999662489, ""stimulus"": ""Incorrect!<p> The correct choice was: B"", ""button_pressed"": ""0"", ""test_part"": ""feedback"", ""trial_type"": ""html-button-response"", ""trial_index"": 9, ""time_elapsed"": 20587, ""internal_node_id"": ""0.0-4.0-2.0"", ""uniqueId"": ""debugZLR3DP:debugUSTGCR"", ""condition"": 0, ""counterbalance"": 0}"
A1YHQGZN0TBSJT:3SNLUL3WO8KYQRMMLCT3GD43MSSLUG,0,1580524545003,"{""rt"": 1739.095000026282, ""responses"": ""{\""Q0\"":\""fsd\""}"", ""test_part"": ""botcheck"", ""trial_type"": ""survey-text"", ""trial_index"": 0, ""time_elapsed"": 1769, ""internal_node_id"": ""0.0-0.0"", ""uniqueId"": ""A1YHQGZN0TBSJT:3SNLUL3WO8KYQRMMLCT3GD43MSSLUG"", ""condition"": 0, ""counterbalance"": 0}"
A1YHQGZN0TBSJT:3SNLUL3WO8KYQRMMLCT3GD43MSSLUG,1,1580524547022,"{""rt"": 2017.229999997653, ""stimulus"": ""<p> <i> This session will last for 10min. Please complete it in full screen mode. </p><p> Do this experiment in one go, otherwise it will time out and we will </p><p> not be able to pay you. </i> </p> "", ""button_pressed"": ""0"", ""test_part"": ""instructions"", ""trial_type"": ""html-button-response"", ""trial_index"": 1, ""time_elapsed"": 3788, ""internal_node_id"": ""0.0-1.0"", ""uniqueId"": ""A1YHQGZN0TBSJT:3SNLUL3WO8KYQRMMLCT3GD43MSSLUG"", ""condition"": 0, ""counterbalance"": 0}"
A1YHQGZN0TBSJT:3SNLUL3WO8KYQRMMLCT3GD43MSSLUG,2,1580524552532,"{""rt"": 4505.2149999537505, ""stimulus"": ""<p> In each trial, you will see some letters (A, B or C) appearing one-by-one. </p><p> <b> Your task is to stop the sequence when 1) you feel like you can predict the next letter <i>or</i> </p><p> 2) you feel like there is no structure and the sequence is unpredictable. </b> </p><p> Some sequences you will see have some structure, and some don't, so they will be more or less predictable. </p><p> <br> Let us practice a bit before we move on to the actual experiment. </p> <br />"", ""button_pressed"": ""0"", ""test_part"": ""instructions"", ""trial_type"": ""html-button-response"", ""trial_index"": 2, ""time_elapsed"": 9297, ""internal_node_id"": ""0.0-2.0"", ""uniqueId"": ""A1YHQGZN0TBSJT:3SNLUL3WO8KYQRMMLCT3GD43MSSLUG"", ""condition"": 0, ""counterbalance"": 0}"
A1YHQGZN0TBSJT:3SNLUL3WO8KYQRMMLCT3GD43MSSLUG,3,1580524614251,"{""rt"": 60716.955000010785, ""stimulus"": ""<p> Remember: Some sequences will be very predictable, some will be somewhat predictable, </p><p> while others will have no structure at all. Stop the sequence by pressing the spacebar  </p><p> whenever you feel you can predict the next letter, or you decide that the sequence is unpredictable. </p><p> When you stop the sequence, you will be asked to predict the next letter, and you will receive feedback. </p><p> You can also say that the sequence was unpredictable by selecting 'Equally likely'. In this case you will receive no feedback. </p><p> <br> Let us practice. </br> <p>"", ""button_pressed"": ""0"", ""test_part"": ""instructions"", ""trial_type"": ""html-button-response"", ""trial_index"": 3, ""time_elapsed"": 71017, ""internal_node_id"": ""0.0-3.0"", ""uniqueId"": ""A1YHQGZN0TBSJT:3SNLUL3WO8KYQRMMLCT3GD43MSSLUG"", ""condition"": 0, ""counterbalance"": 0}"
A1YHQGZN0TBSJT:3SNLUL3WO8KYQRMMLCT3GD43MSSLUG,4,1580524616060,"{""rt"": null, ""stimulus"": ""<div style=\""font-size:65px;\"">  <p> </p>A</div>"", ""key_press"": null, ""test_part"": ""training"", ""next_elem"": ""B"", ""trial_type"": ""html-keyboard-response"", ""trial_index"": 4, ""time_elapsed"": 72825, ""internal_node_id"": ""0.0-4.0-0.0-0.0"", ""uniqueId"": ""A1YHQGZN0TBSJT:3SNLUL3WO8KYQRMMLCT3GD43MSSLUG"", ""condition"": 0, ""counterbalance"": 0}"
A1YHQGZN0TBSJT:3SNLUL3WO8KYQRMMLCT3GD43MSSLUG,5,1580524617167,"{""rt"": null, ""stimulus"": ""<div style=\""font-size:65px;\"">  <p> </p>B</div>"", ""key_press"": null, ""test_part"": ""training"", ""next_elem"": ""C"", ""trial_type"": ""html-keyboard-response"", ""trial_index"": 5, ""time_elapsed"": 73933, ""internal_node_id"": ""0.0-4.0-0.0-0.1"", ""uniqueId"": ""A1YHQGZN0TBSJT:3SNLUL3WO8KYQRMMLCT3GD43MSSLUG"", ""condition"": 0, ""counterbalance"": 0}"
A1YHQGZN0TBSJT:3SNLUL3WO8KYQRMMLCT3GD43MSSLUG,6,1580524618276,"{""rt"": null, ""stimulus"": ""<div style=\""font-size:65px;\"">  <p> </p>C</div>"", ""key_press"": null, ""test_part"": ""training"", ""next_elem"": ""A"", ""trial_type"": ""html-keyboard-response"", ""trial_index"": 6, ""time_elapsed"": 75042, ""internal_node_id"": ""0.0-4.0-0.0-0.2"", ""uniqueId"": ""A1YHQGZN0TBSJT:3SNLUL3WO8KYQRMMLCT3GD43MSSLUG"", ""condition"": 0, ""counterbalance"": 0}"
A1YHQGZN0TBSJT:3SNLUL3WO8KYQRMMLCT3GD43MSSLUG,7,1580524619384,"{""rt"": null, ""stimulus"": ""<div style=\""font-size:65px;\"">  <p> </p>A</div>"", ""key_press"": null, ""test_part"": ""training"", ""next_elem"": ""B"", ""trial_type"": ""html-keyboard-response"", ""trial_index"": 7, ""time_elapsed"": 76149, ""internal_node_id"": ""0.0-4.0-0.0-0.3"", ""uniqueId"": ""A1YHQGZN0TBSJT:3SNLUL3WO8KYQRMMLCT3GD43MSSLUG"", ""condition"": 0, ""counterbalance"": 0}"
A1YHQGZN0TBSJT:3SNLUL3WO8KYQRMMLCT3GD43MSSLUG,8,1580524620488,"{""rt"": null, ""stimulus"": ""<div style=\""font-size:65px;\"">  <p> </p>B</div>"", ""key_press"": null, ""test_part"": ""training"", ""next_elem"": ""C"", ""trial_type"": ""html-keyboard-response"", ""trial_index"": 8, ""time_elapsed"": 77254, ""internal_node_id"": ""0.0-4.0-0.0-0.4"", ""uniqueId"": ""A1YHQGZN0TBSJT:3SNLUL3WO8KYQRMMLCT3GD43MSSLUG"", ""condition"": 0, ""counterbalance"": 0}"
A1YHQGZN0TBSJT:3SNLUL3WO8KYQRMMLCT3GD43MSSLUG,9,1580524621596,"{""rt"": null, ""stimulus"": ""<div style=\""font-size:65px;\"">  <p> </p>C</div>"", ""key_press"": null, ""test_part"": ""training"", ""next_elem"": ""A"", ""trial_type"": ""html-keyboard-response"", ""trial_index"": 9, ""time_elapsed"": 78362, ""internal_node_id"": ""0.0-4.0-0.0-0.5"", ""uniqueId"": ""A1YHQGZN0TBSJT:3SNLUL3WO8KYQRMMLCT3GD43MSSLUG"", ""condition"": 0, ""counterbalance"": 0}"
A1YHQGZN0TBSJT:3SNLUL3WO8KYQRMMLCT3GD43MSSLUG,10,1580524622705,"{""rt"": null, ""stimulus"": ""<div style=\""font-size:65px;\"">  <p> </p>A</div>"", ""key_press"": null, ""test_part"": ""training"", ""next_elem"": ""B"", ""trial_type"": ""html-keyboard-response"", ""trial_index"": 10, ""time_elapsed"": 79471, ""internal_node_id"": ""0.0-4.0-0.0-0.6"", ""uniqueId"": ""A1YHQGZN0TBSJT:3SNLUL3WO8KYQRMMLCT3GD43MSSLUG"", ""condition"": 0, ""counterbalance"": 0}"
A1YHQGZN0TBSJT:3SNLUL3WO8KYQRMMLCT3GD43MSSLUG,11,1580524623811,"{""rt"": null, ""stimulus"": ""<div style=\""font-size:65px;\"">  <p> </p>B</div>"", ""key_press"": null, ""test_part"": ""training"", ""next_elem"": ""C"", ""trial_type"": ""html-keyboard-response"", ""trial_index"": 11, ""time_elapsed"": 80577, ""internal_node_id"": ""0.0-4.0-0.0-0.7"", ""uniqueId"": ""A1YHQGZN0TBSJT:3SNLUL3WO8KYQRMMLCT3GD43MSSLUG"", ""condition"": 0, ""counterbalance"": 0}"
A1YHQGZN0TBSJT:3SNLUL3WO8KYQRMMLCT3GD43MSSLUG,12,1580524624917,"{""rt"": null, ""stimulus"": ""<div style=\""font-size:65px;\"">  <p> </p>C</div>"", ""key_press"": null, ""test_part"": ""training"", ""next_elem"": ""A"", ""trial_type"": ""html-keyboard-response"", ""trial_index"": 12, ""time_elapsed"": 81683, ""internal_node_id"": ""0.0-4.0-0.0-0.8"", ""uniqueId"": ""A1YHQGZN0TBSJT:3SNLUL3WO8KYQRMMLCT3GD43MSSLUG"", ""condition"": 0, ""counterbalance"": 0}"
A1YHQGZN0TBSJT:3SNLUL3WO8KYQRMMLCT3GD43MSSLUG,13,1580524625616,"{""rt"": 393.8600000110455, ""stimulus"": ""<div style=\""font-size:65px;\"">  <p> </p>A</div>"", ""key_press"": 32, ""test_part"": ""training"", ""next_elem"": ""B"", ""trial_type"": ""html-keyboard-response"", ""trial_index"": 13, ""time_elapsed"": 82381, ""internal_node_id"": ""0.0-4.0-0.0-0.9"", ""uniqueId"": ""A1YHQGZN0TBSJT:3SNLUL3WO8KYQRMMLCT3GD43MSSLUG"", ""condition"": 0, ""counterbalance"": 0}"
A1YHQGZN0TBSJT:3SNLUL3WO8KYQRMMLCT3GD43MSSLUG,14,1580524629009,"{""rt"": 3091.2200000020675, ""responses"": ""{\""Q0\"":\""B\""}"", ""question_order"": ""[0]"", ""test_part"": ""prediction"", ""trial_type"": ""survey-multi-choice"", ""trial_index"": 14, ""time_elapsed"": 85775, ""internal_node_id"": ""0.0-4.0-1.0"", ""uniqueId"": ""A1YHQGZN0TBSJT:3SNLUL3WO8KYQRMMLCT3GD43MSSLUG"", ""condition"": 0, ""counterbalance"": 0}"
A1YHQGZN0TBSJT:3SNLUL3WO8KYQRMMLCT3GD43MSSLUG,15,1580524629743,"{""rt"": 727.8999999980442, ""stimulus"": ""Correct!"", ""button_pressed"": ""0"", ""test_part"": ""feedback"", ""trial_type"": ""html-button-response"", ""trial_index"": 15, ""time_elapsed"": 86509, ""internal_node_id"": ""0.0-4.0-2.0"", ""uniqueId"": ""A1YHQGZN0TBSJT:3SNLUL3WO8KYQRMMLCT3GD43MSSLUG"", ""condition"": 0, ""counterbalance"": 0}"
A1YHQGZN0TBSJT:3SNLUL3WO8KYQRMMLCT3GD43MSSLUG,16,1580524630545,"{""rt"": null, ""stimulus"": ""<div style=\""font-size:65px;\"">  <p> </p>A</div>"", ""key_press"": null, ""test_part"": ""training"", ""next_elem"": ""A"", ""trial_type"": ""html-keyboard-response"", ""trial_index"": 16, ""time_elapsed"": 87311, ""internal_node_id"": ""0.0-5.0-0.0-0.0"", ""uniqueId"": ""A1YHQGZN0TBSJT:3SNLUL3WO8KYQRMMLCT3GD43MSSLUG"", ""condition"": 0, ""counterbalance"": 0}"
A1YHQGZN0TBSJT:3SNLUL3WO8KYQRMMLCT3GD43MSSLUG,17,1580524631650,"{""rt"": null, ""stimulus"": ""<div style=\""font-size:65px;\"">  <p> </p>A</div>"", ""key_press"": null, ""test_part"": ""training"", ""next_elem"": ""A"", ""trial_type"": ""html-keyboard-response"", ""trial_index"": 17, ""time_elapsed"": 88416, ""internal_node_id"": ""0.0-5.0-0.0-0.1"", ""uniqueId"": ""A1YHQGZN0TBSJT:3SNLUL3WO8KYQRMMLCT3GD43MSSLUG"", ""condition"": 0, ""counterbalance"": 0}"
A1YHQGZN0TBSJT:3SNLUL3WO8KYQRMMLCT3GD43MSSLUG,18,1580524632759,"{""rt"": null, ""stimulus"": ""<div style=\""font-size:65px;\"">  <p> </p>A</div>"", ""key_press"": null, ""test_part"": ""training"", ""next_elem"": ""A"", ""trial_type"": ""html-keyboard-response"", ""trial_index"": 18, ""time_elapsed"": 89525, ""internal_node_id"": ""0.0-5.0-0.0-0.2"", ""uniqueId"": ""A1YHQGZN0TBSJT:3SNLUL3WO8KYQRMMLCT3GD43MSSLUG"", ""condition"": 0, ""counterbalance"": 0}"
A1YHQGZN0TBSJT:3SNLUL3WO8KYQRMMLCT3GD43MSSLUG,19,1580524633864,"{""rt"": null, ""stimulus"": ""<div style=\""font-size:65px;\"">  <p> </p>A</div>"", ""key_press"": null, ""test_part"": ""training"", ""next_elem"": ""A"", ""trial_type"": ""html-keyboard-response"", ""trial_index"": 19, ""time_elapsed"": 90630, ""internal_node_id"": ""0.0-5.0-0.0-0.3"", ""uniqueId"": ""A1YHQGZN0TBSJT:3SNLUL3WO8KYQRMMLCT3GD43MSSLUG"", ""condition"": 0, ""counterbalance"": 0}"
A1YHQGZN0TBSJT:3SNLUL3WO8KYQRMMLCT3GD43MSSLUG,20,1580524634972,"{""rt"": null, ""stimulus"": ""<div style=\""font-size:65px;\"">  <p> </p>A</div>"", ""key_press"": null, ""test_part"": ""training"", ""next_elem"": ""A"", ""trial_type"": ""html-keyboard-response"", ""trial_index"": 20, ""time_elapsed"": 91738, ""internal_node_id"": ""0.0-5.0-0.0-0.4"", ""uniqueId"": ""A1YHQGZN0TBSJT:3SNLUL3WO8KYQRMMLCT3GD43MSSLUG"", ""condition"": 0, ""counterbalance"": 0}"
A1YHQGZN0TBSJT:3SNLUL3WO8KYQRMMLCT3GD43MSSLUG,21,1580524636079,"{""rt"": null, ""stimulus"": ""<div style=\""font-size:65px;\"">  <p> </p>A</div>"", ""key_press"": null, ""test_part"": ""training"", ""next_elem"": ""A"", ""trial_type"": ""html-keyboard-response"", ""trial_index"": 21, ""time_elapsed"": 92845, ""internal_node_id"": ""0.0-5.0-0.0-0.5"", ""uniqueId"": ""A1YHQGZN0TBSJT:3SNLUL3WO8KYQRMMLCT3GD43MSSLUG"", ""condition"": 0, ""counterbalance"": 0}"
A1YHQGZN0TBSJT:3SNLUL3WO8KYQRMMLCT3GD43MSSLUG,22,1580524637189,"{""rt"": null, ""stimulus"": ""<div style=\""font-size:65px;\"">  <p> </p>A</div>"", ""key_press"": null, ""test_part"": ""training"", ""next_elem"": ""A"", ""trial_type"": ""html-keyboard-response"", ""trial_index"": 22, ""time_elapsed"": 93955, ""internal_node_id"": ""0.0-5.0-0.0-0.6"", ""uniqueId"": ""A1YHQGZN0TBSJT:3SNLUL3WO8KYQRMMLCT3GD43MSSLUG"", ""condition"": 0, ""counterbalance"": 0}"
A1YHQGZN0TBSJT:3SNLUL3WO8KYQRMMLCT3GD43MSSLUG,23,1580524637737,"{""rt"": 244.1050000488758, ""stimulus"": ""<div style=\""font-size:65px;\"">  <p> </p>A</div>"", ""key_press"": 32, ""test_part"": ""training"", ""next_elem"": ""A"", ""trial_type"": ""html-keyboard-response"", ""trial_index"": 23, ""time_elapsed"": 94503, ""internal_node_id"": ""0.0-5.0-0.0-0.7"", ""uniqueId"": ""A1YHQGZN0TBSJT:3SNLUL3WO8KYQRMMLCT3GD43MSSLUG"", ""condition"": 0, ""counterbalance"": 0}"
A1YHQGZN0TBSJT:3SNLUL3WO8KYQRMMLCT3GD43MSSLUG,24,1580524641023,"{""rt"": 2979.8449999652803, ""responses"": ""{\""Q0\"":\""A\""}"", ""question_order"": ""[0]"", ""test_part"": ""prediction"", ""trial_type"": ""survey-multi-choice"", ""trial_index"": 24, ""time_elapsed"": 97789, ""internal_node_id"": ""0.0-5.0-1.0"", ""uniqueId"": ""A1YHQGZN0TBSJT:3SNLUL3WO8KYQRMMLCT3GD43MSSLUG"", ""condition"": 0, ""counterbalance"": 0}"
A1YHQGZN0TBSJT:3SNLUL3WO8KYQRMMLCT3GD43MSSLUG,25,1580524641991,"{""rt"": 963.6600000085309, ""stimulus"": ""Correct!"", ""button_pressed"": ""0"", ""test_part"": ""feedback"", ""trial_type"": ""html-button-response"", ""trial_index"": 25, ""time_elapsed"": 98757, ""internal_node_id"": ""0.0-5.0-2.0"", ""uniqueId"": ""A1YHQGZN0TBSJT:3SNLUL3WO8KYQRMMLCT3GD43MSSLUG"", ""condition"": 0, ""counterbalance"": 0}"
A1YHQGZN0TBSJT:3SNLUL3WO8KYQRMMLCT3GD43MSSLUG,26,1580524642797,"{""rt"": null, ""stimulus"": ""<div style=\""font-size:65px;\"">A</div>"", ""key_press"": null, ""test_part"": ""training"", ""next_elem"": ""B"", ""trial_type"": ""html-keyboard-response"", ""trial_index"": 26, ""time_elapsed"": 99562, ""internal_node_id"": ""0.0-6.0-0.0-0.0"", ""uniqueId"": ""A1YHQGZN0TBSJT:3SNLUL3WO8KYQRMMLCT3GD43MSSLUG"", ""condition"": 0, ""counterbalance"": 0}"
A1YHQGZN0TBSJT:3SNLUL3WO8KYQRMMLCT3GD43MSSLUG,27,1580524643359,"{""rt"": 258.5850000032224, ""stimulus"": ""<div style=\""font-size:65px;\"">B</div>"", ""key_press"": 74, ""test_part"": ""training"", ""next_elem"": ""B"", ""trial_type"": ""html-keyboard-response"", ""trial_index"": 27, ""time_elapsed"": 100124, ""internal_node_id"": ""0.0-6.0-0.0-0.1"", ""uniqueId"": ""A1YHQGZN0TBSJT:3SNLUL3WO8KYQRMMLCT3GD43MSSLUG"", ""condition"": 0, ""counterbalance"": 0}"
A1YHQGZN0TBSJT:3SNLUL3WO8KYQRMMLCT3GD43MSSLUG,28,1580524644466,"{""rt"": null, ""stimulus"": ""<div style=\""font-size:65px;\"">B</div>"", ""key_press"": null, ""test_part"": ""training"", ""next_elem"": ""C"", ""trial_type"": ""html-keyboard-response"", ""trial_index"": 28, ""time_elapsed"": 101232, ""internal_node_id"": ""0.0-6.0-0.0-0.2"", ""uniqueId"": ""A1YHQGZN0TBSJT:3SNLUL3WO8KYQRMMLCT3GD43MSSLUG"", ""condition"": 0, ""counterbalance"": 0}"
A1YHQGZN0TBSJT:3SNLUL3WO8KYQRMMLCT3GD43MSSLUG,29,1580524644885,"{""rt"": 114.20000001089647, ""stimulus"": ""<div style=\""font-size:65px;\"">C</div>"", ""key_press"": 74, ""test_part"": ""training"", ""next_elem"": ""B"", ""trial_type"": ""html-keyboard-response"", ""trial_index"": 29, ""time_elapsed"": 101651, ""internal_node_id"": ""0.0-6.0-0.0-0.3"", ""uniqueId"": ""A1YHQGZN0TBSJT:3SNLUL3WO8KYQRMMLCT3GD43MSSLUG"", ""condition"": 0, ""counterbalance"": 0}"
A1YHQGZN0TBSJT:3SNLUL3WO8KYQRMMLCT3GD43MSSLUG,30,1580524645696,"{""rt"": 505.56499999947846, ""stimulus"": ""<div style=\""font-size:65px;\"">B</div>"", ""key_press"": 74, ""test_part"": ""training"", ""next_elem"": ""A"", ""trial_type"": ""html-keyboard-response"", ""trial_index"": 30, ""time_elapsed"": 102462, ""internal_node_id"": ""0.0-6.0-0.0-0.4"", ""uniqueId"": ""A1YHQGZN0TBSJT:3SNLUL3WO8KYQRMMLCT3GD43MSSLUG"", ""condition"": 0, ""counterbalance"": 0}"
A1YHQGZN0TBSJT:3SNLUL3WO8KYQRMMLCT3GD43MSSLUG,31,1580524646668,"{""rt"": 670.0200000195764, ""stimulus"": ""<div style=\""font-size:65px;\"">A</div>"", ""key_press"": 74, ""test_part"": ""training"", ""next_elem"": ""C"", ""trial_type"": ""html-keyboard-response"", ""trial_index"": 31, ""time_elapsed"": 103434, ""internal_node_id"": ""0.0-6.0-0.0-0.5"", ""uniqueId"": ""A1YHQGZN0TBSJT:3SNLUL3WO8KYQRMMLCT3GD43MSSLUG"", ""condition"": 0, ""counterbalance"": 0}"
A1YHQGZN0TBSJT:3SNLUL3WO8KYQRMMLCT3GD43MSSLUG,32,1580524647776,"{""rt"": null, ""stimulus"": ""<div style=\""font-size:65px;\"">C</div>"", ""key_press"": null, ""test_part"": ""training"", ""next_elem"": ""C"", ""trial_type"": ""html-keyboard-response"", ""trial_index"": 32, ""time_elapsed"": 104541, ""internal_node_id"": ""0.0-6.0-0.0-0.6"", ""uniqueId"": ""A1YHQGZN0TBSJT:3SNLUL3WO8KYQRMMLCT3GD43MSSLUG"", ""condition"": 0, ""counterbalance"": 0}"
A1YHQGZN0TBSJT:3SNLUL3WO8KYQRMMLCT3GD43MSSLUG,33,1580524648883,"{""rt"": null, ""stimulus"": ""<div style=\""font-size:65px;\"">C</div>"", ""key_press"": null, ""test_part"": ""training"", ""next_elem"": ""B"", ""trial_type"": ""html-keyboard-response"", ""trial_index"": 33, ""time_elapsed"": 105649, ""internal_node_id"": ""0.0-6.0-0.0-0.7"", ""uniqueId"": ""A1YHQGZN0TBSJT:3SNLUL3WO8KYQRMMLCT3GD43MSSLUG"", ""condition"": 0, ""counterbalance"": 0}"
A1YHQGZN0TBSJT:3SNLUL3WO8KYQRMMLCT3GD43MSSLUG,34,1580524649987,"{""rt"": null, ""stimulus"": ""<div style=\""font-size:65px;\"">B</div>"", ""key_press"": null, ""test_part"": ""training"", ""next_elem"": ""A"", ""trial_type"": ""html-keyboard-response"", ""trial_index"": 34, ""time_elapsed"": 106753, ""internal_node_id"": ""0.0-6.0-0.0-0.8"", ""uniqueId"": ""A1YHQGZN0TBSJT:3SNLUL3WO8KYQRMMLCT3GD43MSSLUG"", ""condition"": 0, ""counterbalance"": 0}"
A1YHQGZN0TBSJT:3SNLUL3WO8KYQRMMLCT3GD43MSSLUG,35,1580524651096,"{""rt"": null, ""stimulus"": ""<div style=\""font-size:65px;\"">A</div>"", ""key_press"": null, ""test_part"": ""training"", ""next_elem"": ""C"", ""trial_type"": ""html-keyboard-response"", ""trial_index"": 35, ""time_elapsed"": 107862, ""internal_node_id"": ""0.0-6.0-0.0-0.9"", ""uniqueId"": ""A1YHQGZN0TBSJT:3SNLUL3WO8KYQRMMLCT3GD43MSSLUG"", ""condition"": 0, ""counterbalance"": 0}"
A1YHQGZN0TBSJT:3SNLUL3WO8KYQRMMLCT3GD43MSSLUG,36,1580524651783,"{""rt"": 382.93500000145286, ""stimulus"": ""<div style=\""font-size:65px;\"">C</div>"", ""key_press"": 32, ""test_part"": ""training"", ""next_elem"": ""B"", ""trial_type"": ""html-keyboard-response"", ""trial_index"": 36, ""time_elapsed"": 108549, ""internal_node_id"": ""0.0-6.0-0.0-0.10"", ""uniqueId"": ""A1YHQGZN0TBSJT:3SNLUL3WO8KYQRMMLCT3GD43MSSLUG"", ""condition"": 0, ""counterbalance"": 0}"
A1YHQGZN0TBSJT:3SNLUL3WO8KYQRMMLCT3GD43MSSLUG,37,1580524655265,"{""rt"": 3177.670000004582, ""responses"": ""{\""Q0\"":\""C\""}"", ""question_order"": ""[0]"", ""test_part"": ""prediction"", ""trial_type"": ""survey-multi-choice"", ""trial_index"": 37, ""time_elapsed"": 112031, ""internal_node_id"": ""0.0-6.0-1.0"", ""uniqueId"": ""A1YHQGZN0TBSJT:3SNLUL3WO8KYQRMMLCT3GD43MSSLUG"", ""condition"": 0, ""counterbalance"": 0}"
A1YHQGZN0TBSJT:3SNLUL3WO8KYQRMMLCT3GD43MSSLUG,38,1580524656253,"{""rt"": 981.5700000035577, ""stimulus"": ""Incorrect!<p> The correct choice was: B"", ""button_pressed"": ""0"", ""test_part"": ""feedback"", ""trial_type"": ""html-button-response"", ""trial_index"": 38, ""time_elapsed"": 113019, ""internal_node_id"": ""0.0-6.0-2.0"", ""uniqueId"": ""A1YHQGZN0TBSJT:3SNLUL3WO8KYQRMMLCT3GD43MSSLUG"", ""condition"": 0, ""counterbalance"": 0}"
A1YHQGZN0TBSJT:3SNLUL3WO8KYQRMMLCT3GD43MSSLUG,39,1580524659311,"{""rt"": 3055.9700000449084, ""stimulus"": ""<p> You are now ready to proceed with the actual experiment. It will take about 8min from now. </p>"", ""button_pressed"": ""0"", ""test_part"": ""instructions"", ""trial_type"": ""html-button-response"", ""trial_index"": 39, ""time_elapsed"": 116076, ""internal_node_id"": ""0.0-7.0"", ""uniqueId"": ""A1YHQGZN0TBSJT:3SNLUL3WO8KYQRMMLCT3GD43MSSLUG"", ""condition"": 0, ""counterbalance"": 0}"
A1YHQGZN0TBSJT:3SNLUL3WO8KYQRMMLCT3GD43MSSLUG,40,1580524660114,"{""rt"": null, ""stimulus"": ""<div style=\""font-size:65px;\"">B</div>"", ""key_press"": null, ""test_part"": ""test"", ""next_elem"": ""B"", ""trial_type"": ""html-keyboard-response"", ""trial_index"": 40, ""time_elapsed"": 116880, ""internal_node_id"": ""0.0-8.0-0.0-0.0"", ""uniqueId"": ""A1YHQGZN0TBSJT:3SNLUL3WO8KYQRMMLCT3GD43MSSLUG"", ""condition"": 0, ""counterbalance"": 0}"
A1YHQGZN0TBSJT:3SNLUL3WO8KYQRMMLCT3GD43MSSLUG,41,1580524661221,"{""rt"": null, ""stimulus"": ""<div style=\""font-size:65px;\"">B</div>"", ""key_press"": null, ""test_part"": ""test"", ""next_elem"": ""C"", ""trial_type"": ""html-keyboard-response"", ""trial_index"": 41, ""time_elapsed"": 117987, ""internal_node_id"": ""0.0-8.0-0.0-0.1"", ""uniqueId"": ""A1YHQGZN0TBSJT:3SNLUL3WO8KYQRMMLCT3GD43MSSLUG"", ""condition"": 0, ""counterbalance"": 0}"
A1YHQGZN0TBSJT:3SNLUL3WO8KYQRMMLCT3GD43MSSLUG,42,1580524662329,"{""rt"": null, ""stimulus"": ""<div style=\""font-size:65px;\"">C</div>"", ""key_press"": null, ""test_part"": ""test"", ""next_elem"": ""B"", ""trial_type"": ""html-keyboard-response"", ""trial_index"": 42, ""time_elapsed"": 119095, ""internal_node_id"": ""0.0-8.0-0.0-0.2"", ""uniqueId"": ""A1YHQGZN0TBSJT:3SNLUL3WO8KYQRMMLCT3GD43MSSLUG"", ""condition"": 0, ""counterbalance"": 0}"
A1YHQGZN0TBSJT:3SNLUL3WO8KYQRMMLCT3GD43MSSLUG,43,1580524663438,"{""rt"": null, ""stimulus"": ""<div style=\""font-size:65px;\"">B</div>"", ""key_press"": null, ""test_part"": ""test"", ""next_elem"": ""B"", ""trial_type"": ""html-keyboard-response"", ""trial_index"": 43, ""time_elapsed"": 120204, ""internal_node_id"": ""0.0-8.0-0.0-0.3"", ""uniqueId"": ""A1YHQGZN0TBSJT:3SNLUL3WO8KYQRMMLCT3GD43MSSLUG"", ""condition"": 0, ""counterbalance"": 0}"
