A2BV7O07LVX731:36W0OB37HXEI7USAKE6NWZ7QCVKZH5,0,1595127522217,"{""rt"": 11411.1050000065, ""responses"": ""{\""Q0\"":\""green circle\""}"", ""test_part"": ""botcheck"", ""trial_type"": ""survey-text"", ""trial_index"": 0, ""time_elapsed"": 11468, ""internal_node_id"": ""0.0-0.0"", ""uniqueId"": ""A2BV7O07LVX731:36W0OB37HXEI7USAKE6NWZ7QCVKZH5"", ""condition"": 0, ""counterbalance"": 0}"
A2BV7O07LVX731:36W0OB37HXEI7USAKE6NWZ7QCVKZH5,1,1595127530018,"{""rt"": 7797.514999998384, ""stimulus"": ""<p> <i> Thank you for participating in our experiment!  </i> </p><p> This session will last for 5min. <b> Please complete it in full screen mode. </b> </p><p> Do this experiment in one go, otherwise it will time out and we will </p><p> not be able to pay you. </p> "", ""button_pressed"": ""0"", ""test_part"": ""instructions"", ""trial_type"": ""html-button-response"", ""trial_index"": 1, ""time_elapsed"": 19270, ""internal_node_id"": ""0.0-1.0"", ""uniqueId"": ""A2BV7O07LVX731:36W0OB37HXEI7USAKE6NWZ7QCVKZH5"", ""condition"": 0, ""counterbalance"": 0}"
A2BV7O07LVX731:36W0OB37HXEI7USAKE6NWZ7QCVKZH5,2,1595127535804,"{""rt"": 4781.774999995832, ""stimulus"": ""<p> In each trial, you will see sequences of icons appearing one-by-one. </p><p> <b> Your task is very easy: Watch the icons closely, and for as long as you like.  </b> </p><p> Whenever you lose interest in the sequence, press space bar to see the next one. </p>"", ""button_pressed"": ""0"", ""test_part"": ""instructions"", ""trial_type"": ""html-button-response"", ""trial_index"": 2, ""time_elapsed"": 25056, ""internal_node_id"": ""0.0-2.0"", ""uniqueId"": ""A2BV7O07LVX731:36W0OB37HXEI7USAKE6NWZ7QCVKZH5"", ""condition"": 0, ""counterbalance"": 0}"
A2BV7O07LVX731:36W0OB37HXEI7USAKE6NWZ7QCVKZH5,3,1595127543164,"{""rt"": 6354.175000000396, ""stimulus"": ""<p> To re-iterate: Your task is simply to watch the icons, </p><p> and press the space bar whenever you want to move on. </p><p> The experiment will end automatically after 5 minutes. </p><p> <b> Please, maintain your attention during the experiment. </b> </p><p> You may encounter little, unexpected tests during the experiment, </p><p>  to make sure you are paying attention. </p>"", ""button_pressed"": ""0"", ""test_part"": ""instructions"", ""trial_type"": ""html-button-response"", ""trial_index"": 3, ""time_elapsed"": 32415, ""internal_node_id"": ""0.0-3.0"", ""uniqueId"": ""A2BV7O07LVX731:36W0OB37HXEI7USAKE6NWZ7QCVKZH5"", ""condition"": 0, ""counterbalance"": 0}"
A2BV7O07LVX731:36W0OB37HXEI7USAKE6NWZ7QCVKZH5,4,1595127545068,"{""rt"": null, ""stimulus"": ""<img src=\""/static/images/icons/Slide36.png\""></img>"", ""key_press"": null, ""test_part"": ""training"", ""next_elem"": ""Slide24"", ""trial_type"": ""html-keyboard-response"", ""trial_index"": 4, ""time_elapsed"": 34319, ""internal_node_id"": ""0.0-4.0-0.0-0.0"", ""uniqueId"": ""A2BV7O07LVX731:36W0OB37HXEI7USAKE6NWZ7QCVKZH5"", ""condition"": 0, ""counterbalance"": 0}"
A2BV7O07LVX731:36W0OB37HXEI7USAKE6NWZ7QCVKZH5,5,1595127546272,"{""rt"": null, ""stimulus"": ""<img src=\""/static/images/icons/Slide24.png\""></img>"", ""key_press"": null, ""test_part"": ""training"", ""next_elem"": ""Slide17"", ""trial_type"": ""html-keyboard-response"", ""trial_index"": 5, ""time_elapsed"": 35524, ""internal_node_id"": ""0.0-4.0-0.0-0.1"", ""uniqueId"": ""A2BV7O07LVX731:36W0OB37HXEI7USAKE6NWZ7QCVKZH5"", ""condition"": 0, ""counterbalance"": 0}"
A2BV7O07LVX731:36W0OB37HXEI7USAKE6NWZ7QCVKZH5,6,1595127547475,"{""rt"": null, ""stimulus"": ""<img src=\""/static/images/icons/Slide17.png\""></img>"", ""key_press"": null, ""test_part"": ""training"", ""next_elem"": ""Slide24"", ""trial_type"": ""html-keyboard-response"", ""trial_index"": 6, ""time_elapsed"": 36727, ""internal_node_id"": ""0.0-4.0-0.0-0.2"", ""uniqueId"": ""A2BV7O07LVX731:36W0OB37HXEI7USAKE6NWZ7QCVKZH5"", ""condition"": 0, ""counterbalance"": 0}"
A2BV7O07LVX731:36W0OB37HXEI7USAKE6NWZ7QCVKZH5,7,1595127548678,"{""rt"": null, ""stimulus"": ""<img src=\""/static/images/icons/Slide24.png\""></img>"", ""key_press"": null, ""test_part"": ""training"", ""next_elem"": ""Slide17"", ""trial_type"": ""html-keyboard-response"", ""trial_index"": 7, ""time_elapsed"": 37930, ""internal_node_id"": ""0.0-4.0-0.0-0.3"", ""uniqueId"": ""A2BV7O07LVX731:36W0OB37HXEI7USAKE6NWZ7QCVKZH5"", ""condition"": 0, ""counterbalance"": 0}"
A2BV7O07LVX731:36W0OB37HXEI7USAKE6NWZ7QCVKZH5,8,1595127549887,"{""rt"": null, ""stimulus"": ""<img src=\""/static/images/icons/Slide17.png\""></img>"", ""key_press"": null, ""test_part"": ""training"", ""next_elem"": ""Slide36"", ""trial_type"": ""html-keyboard-response"", ""trial_index"": 8, ""time_elapsed"": 39139, ""internal_node_id"": ""0.0-4.0-0.0-0.4"", ""uniqueId"": ""A2BV7O07LVX731:36W0OB37HXEI7USAKE6NWZ7QCVKZH5"", ""condition"": 0, ""counterbalance"": 0}"
A2BV7O07LVX731:36W0OB37HXEI7USAKE6NWZ7QCVKZH5,9,1595127551091,"{""rt"": null, ""stimulus"": ""<img src=\""/static/images/icons/Slide36.png\""></img>"", ""key_press"": null, ""test_part"": ""training"", ""next_elem"": ""Slide24"", ""trial_type"": ""html-keyboard-response"", ""trial_index"": 9, ""time_elapsed"": 40343, ""internal_node_id"": ""0.0-4.0-0.0-0.5"", ""uniqueId"": ""A2BV7O07LVX731:36W0OB37HXEI7USAKE6NWZ7QCVKZH5"", ""condition"": 0, ""counterbalance"": 0}"
A2BV7O07LVX731:36W0OB37HXEI7USAKE6NWZ7QCVKZH5,10,1595127552293,"{""rt"": null, ""stimulus"": ""<img src=\""/static/images/icons/Slide24.png\""></img>"", ""key_press"": null, ""test_part"": ""training"", ""next_elem"": ""Slide36"", ""trial_type"": ""html-keyboard-response"", ""trial_index"": 10, ""time_elapsed"": 41545, ""internal_node_id"": ""0.0-4.0-0.0-0.6"", ""uniqueId"": ""A2BV7O07LVX731:36W0OB37HXEI7USAKE6NWZ7QCVKZH5"", ""condition"": 0, ""counterbalance"": 0}"
A2BV7O07LVX731:36W0OB37HXEI7USAKE6NWZ7QCVKZH5,11,1595127553497,"{""rt"": null, ""stimulus"": ""<img src=\""/static/images/icons/Slide36.png\""></img>"", ""key_press"": null, ""test_part"": ""training"", ""next_elem"": ""Slide17"", ""trial_type"": ""html-keyboard-response"", ""trial_index"": 11, ""time_elapsed"": 42749, ""internal_node_id"": ""0.0-4.0-0.0-0.7"", ""uniqueId"": ""A2BV7O07LVX731:36W0OB37HXEI7USAKE6NWZ7QCVKZH5"", ""condition"": 0, ""counterbalance"": 0}"
A2BV7O07LVX731:36W0OB37HXEI7USAKE6NWZ7QCVKZH5,12,1595127554699,"{""rt"": null, ""stimulus"": ""<img src=\""/static/images/icons/Slide17.png\""></img>"", ""key_press"": null, ""test_part"": ""training"", ""next_elem"": ""Slide17"", ""trial_type"": ""html-keyboard-response"", ""trial_index"": 12, ""time_elapsed"": 43951, ""internal_node_id"": ""0.0-4.0-0.0-0.8"", ""uniqueId"": ""A2BV7O07LVX731:36W0OB37HXEI7USAKE6NWZ7QCVKZH5"", ""condition"": 0, ""counterbalance"": 0}"
A2BV7O07LVX731:36W0OB37HXEI7USAKE6NWZ7QCVKZH5,13,1595127555903,"{""rt"": null, ""stimulus"": ""<img src=\""/static/images/icons/Slide17.png\""></img>"", ""key_press"": null, ""test_part"": ""training"", ""next_elem"": ""Slide17"", ""trial_type"": ""html-keyboard-response"", ""trial_index"": 13, ""time_elapsed"": 45155, ""internal_node_id"": ""0.0-4.0-0.0-0.9"", ""uniqueId"": ""A2BV7O07LVX731:36W0OB37HXEI7USAKE6NWZ7QCVKZH5"", ""condition"": 0, ""counterbalance"": 0}"
A2BV7O07LVX731:36W0OB37HXEI7USAKE6NWZ7QCVKZH5,14,1595127557107,"{""rt"": null, ""stimulus"": ""<img src=\""/static/images/icons/Slide17.png\""></img>"", ""key_press"": null, ""test_part"": ""training"", ""next_elem"": ""Slide24"", ""trial_type"": ""html-keyboard-response"", ""trial_index"": 14, ""time_elapsed"": 46358, ""internal_node_id"": ""0.0-4.0-0.0-0.10"", ""uniqueId"": ""A2BV7O07LVX731:36W0OB37HXEI7USAKE6NWZ7QCVKZH5"", ""condition"": 0, ""counterbalance"": 0}"
A2BV7O07LVX731:36W0OB37HXEI7USAKE6NWZ7QCVKZH5,15,1595127558313,"{""rt"": null, ""stimulus"": ""<img src=\""/static/images/icons/Slide24.png\""></img>"", ""key_press"": null, ""test_part"": ""training"", ""next_elem"": ""Slide36"", ""trial_type"": ""html-keyboard-response"", ""trial_index"": 15, ""time_elapsed"": 47565, ""internal_node_id"": ""0.0-4.0-0.0-0.11"", ""uniqueId"": ""A2BV7O07LVX731:36W0OB37HXEI7USAKE6NWZ7QCVKZH5"", ""condition"": 0, ""counterbalance"": 0}"
A2BV7O07LVX731:36W0OB37HXEI7USAKE6NWZ7QCVKZH5,16,1595127559518,"{""rt"": null, ""stimulus"": ""<img src=\""/static/images/icons/Slide36.png\""></img>"", ""key_press"": null, ""test_part"": ""training"", ""next_elem"": ""Slide36"", ""trial_type"": ""html-keyboard-response"", ""trial_index"": 16, ""time_elapsed"": 48770, ""internal_node_id"": ""0.0-4.0-0.0-0.12"", ""uniqueId"": ""A2BV7O07LVX731:36W0OB37HXEI7USAKE6NWZ7QCVKZH5"", ""condition"": 0, ""counterbalance"": 0}"
A2BV7O07LVX731:36W0OB37HXEI7USAKE6NWZ7QCVKZH5,17,1595127560721,"{""rt"": null, ""stimulus"": ""<img src=\""/static/images/icons/Slide36.png\""></img>"", ""key_press"": null, ""test_part"": ""training"", ""next_elem"": ""Slide17"", ""trial_type"": ""html-keyboard-response"", ""trial_index"": 17, ""time_elapsed"": 49973, ""internal_node_id"": ""0.0-4.0-0.0-0.13"", ""uniqueId"": ""A2BV7O07LVX731:36W0OB37HXEI7USAKE6NWZ7QCVKZH5"", ""condition"": 0, ""counterbalance"": 0}"
A2BV7O07LVX731:36W0OB37HXEI7USAKE6NWZ7QCVKZH5,18,1595127561924,"{""rt"": null, ""stimulus"": ""<img src=\""/static/images/icons/Slide17.png\""></img>"", ""key_press"": null, ""test_part"": ""training"", ""next_elem"": ""Slide24"", ""trial_type"": ""html-keyboard-response"", ""trial_index"": 18, ""time_elapsed"": 51176, ""internal_node_id"": ""0.0-4.0-0.0-0.14"", ""uniqueId"": ""A2BV7O07LVX731:36W0OB37HXEI7USAKE6NWZ7QCVKZH5"", ""condition"": 0, ""counterbalance"": 0}"
A2BV7O07LVX731:36W0OB37HXEI7USAKE6NWZ7QCVKZH5,19,1595127563128,"{""rt"": null, ""stimulus"": ""<img src=\""/static/images/icons/Slide24.png\""></img>"", ""key_press"": null, ""test_part"": ""training"", ""next_elem"": ""Slide24"", ""trial_type"": ""html-keyboard-response"", ""trial_index"": 19, ""time_elapsed"": 52380, ""internal_node_id"": ""0.0-4.0-0.0-0.15"", ""uniqueId"": ""A2BV7O07LVX731:36W0OB37HXEI7USAKE6NWZ7QCVKZH5"", ""condition"": 0, ""counterbalance"": 0}"
A2BV7O07LVX731:36W0OB37HXEI7USAKE6NWZ7QCVKZH5,20,1595127564330,"{""rt"": null, ""stimulus"": ""<img src=\""/static/images/icons/Slide24.png\""></img>"", ""key_press"": null, ""test_part"": ""training"", ""next_elem"": ""Slide24"", ""trial_type"": ""html-keyboard-response"", ""trial_index"": 20, ""time_elapsed"": 53582, ""internal_node_id"": ""0.0-4.0-0.0-0.16"", ""uniqueId"": ""A2BV7O07LVX731:36W0OB37HXEI7USAKE6NWZ7QCVKZH5"", ""condition"": 0, ""counterbalance"": 0}"
A2BV7O07LVX731:36W0OB37HXEI7USAKE6NWZ7QCVKZH5,21,1595127565533,"{""rt"": null, ""stimulus"": ""<img src=\""/static/images/icons/Slide24.png\""></img>"", ""key_press"": null, ""test_part"": ""training"", ""next_elem"": ""Slide36"", ""trial_type"": ""html-keyboard-response"", ""trial_index"": 21, ""time_elapsed"": 54785, ""internal_node_id"": ""0.0-4.0-0.0-0.17"", ""uniqueId"": ""A2BV7O07LVX731:36W0OB37HXEI7USAKE6NWZ7QCVKZH5"", ""condition"": 0, ""counterbalance"": 0}"
A2BV7O07LVX731:36W0OB37HXEI7USAKE6NWZ7QCVKZH5,22,1595127566737,"{""rt"": null, ""stimulus"": ""<img src=\""/static/images/icons/Slide36.png\""></img>"", ""key_press"": null, ""test_part"": ""training"", ""next_elem"": ""Slide24"", ""trial_type"": ""html-keyboard-response"", ""trial_index"": 22, ""time_elapsed"": 55989, ""internal_node_id"": ""0.0-4.0-0.0-0.18"", ""uniqueId"": ""A2BV7O07LVX731:36W0OB37HXEI7USAKE6NWZ7QCVKZH5"", ""condition"": 0, ""counterbalance"": 0}"
A2BV7O07LVX731:36W0OB37HXEI7USAKE6NWZ7QCVKZH5,23,1595127567942,"{""rt"": null, ""stimulus"": ""<img src=\""/static/images/icons/Slide24.png\""></img>"", ""key_press"": null, ""test_part"": ""training"", ""next_elem"": ""Slide36"", ""trial_type"": ""html-keyboard-response"", ""trial_index"": 23, ""time_elapsed"": 57194, ""internal_node_id"": ""0.0-4.0-0.0-0.19"", ""uniqueId"": ""A2BV7O07LVX731:36W0OB37HXEI7USAKE6NWZ7QCVKZH5"", ""condition"": 0, ""counterbalance"": 0}"
A2BV7O07LVX731:36W0OB37HXEI7USAKE6NWZ7QCVKZH5,24,1595127569145,"{""rt"": null, ""stimulus"": ""<img src=\""/static/images/icons/Slide36.png\""></img>"", ""key_press"": null, ""test_part"": ""training"", ""next_elem"": ""Slide24"", ""trial_type"": ""html-keyboard-response"", ""trial_index"": 24, ""time_elapsed"": 58397, ""internal_node_id"": ""0.0-4.0-0.0-0.20"", ""uniqueId"": ""A2BV7O07LVX731:36W0OB37HXEI7USAKE6NWZ7QCVKZH5"", ""condition"": 0, ""counterbalance"": 0}"
A2BV7O07LVX731:36W0OB37HXEI7USAKE6NWZ7QCVKZH5,25,1595127570348,"{""rt"": null, ""stimulus"": ""<img src=\""/static/images/icons/Slide24.png\""></img>"", ""key_press"": null, ""test_part"": ""training"", ""next_elem"": ""Slide24"", ""trial_type"": ""html-keyboard-response"", ""trial_index"": 25, ""time_elapsed"": 59599, ""internal_node_id"": ""0.0-4.0-0.0-0.21"", ""uniqueId"": ""A2BV7O07LVX731:36W0OB37HXEI7USAKE6NWZ7QCVKZH5"", ""condition"": 0, ""counterbalance"": 0}"
A2BV7O07LVX731:36W0OB37HXEI7USAKE6NWZ7QCVKZH5,26,1595127571552,"{""rt"": null, ""stimulus"": ""<img src=\""/static/images/icons/Slide24.png\""></img>"", ""key_press"": null, ""test_part"": ""training"", ""next_elem"": ""Slide17"", ""trial_type"": ""html-keyboard-response"", ""trial_index"": 26, ""time_elapsed"": 60804, ""internal_node_id"": ""0.0-4.0-0.0-0.22"", ""uniqueId"": ""A2BV7O07LVX731:36W0OB37HXEI7USAKE6NWZ7QCVKZH5"", ""condition"": 0, ""counterbalance"": 0}"
A2BV7O07LVX731:36W0OB37HXEI7USAKE6NWZ7QCVKZH5,27,1595127572756,"{""rt"": null, ""stimulus"": ""<img src=\""/static/images/icons/Slide17.png\""></img>"", ""key_press"": null, ""test_part"": ""training"", ""next_elem"": ""Slide36"", ""trial_type"": ""html-keyboard-response"", ""trial_index"": 27, ""time_elapsed"": 62008, ""internal_node_id"": ""0.0-4.0-0.0-0.23"", ""uniqueId"": ""A2BV7O07LVX731:36W0OB37HXEI7USAKE6NWZ7QCVKZH5"", ""condition"": 0, ""counterbalance"": 0}"
A2BV7O07LVX731:36W0OB37HXEI7USAKE6NWZ7QCVKZH5,28,1595127573960,"{""rt"": null, ""stimulus"": ""<img src=\""/static/images/icons/Slide36.png\""></img>"", ""key_press"": null, ""test_part"": ""training"", ""next_elem"": ""Slide36"", ""trial_type"": ""html-keyboard-response"", ""trial_index"": 28, ""time_elapsed"": 63212, ""internal_node_id"": ""0.0-4.0-0.0-0.24"", ""uniqueId"": ""A2BV7O07LVX731:36W0OB37HXEI7USAKE6NWZ7QCVKZH5"", ""condition"": 0, ""counterbalance"": 0}"
A2BV7O07LVX731:36W0OB37HXEI7USAKE6NWZ7QCVKZH5,29,1595127575164,"{""rt"": null, ""stimulus"": ""<img src=\""/static/images/icons/Slide36.png\""></img>"", ""key_press"": null, ""test_part"": ""training"", ""next_elem"": ""Slide36"", ""trial_type"": ""html-keyboard-response"", ""trial_index"": 29, ""time_elapsed"": 64416, ""internal_node_id"": ""0.0-4.0-0.0-0.25"", ""uniqueId"": ""A2BV7O07LVX731:36W0OB37HXEI7USAKE6NWZ7QCVKZH5"", ""condition"": 0, ""counterbalance"": 0}"
A2BV7O07LVX731:36W0OB37HXEI7USAKE6NWZ7QCVKZH5,30,1595127576366,"{""rt"": null, ""stimulus"": ""<img src=\""/static/images/icons/Slide36.png\""></img>"", ""key_press"": null, ""test_part"": ""training"", ""next_elem"": ""Slide17"", ""trial_type"": ""html-keyboard-response"", ""trial_index"": 30, ""time_elapsed"": 65618, ""internal_node_id"": ""0.0-4.0-0.0-0.26"", ""uniqueId"": ""A2BV7O07LVX731:36W0OB37HXEI7USAKE6NWZ7QCVKZH5"", ""condition"": 0, ""counterbalance"": 0}"
A2BV7O07LVX731:36W0OB37HXEI7USAKE6NWZ7QCVKZH5,31,1595127577570,"{""rt"": null, ""stimulus"": ""<img src=\""/static/images/icons/Slide17.png\""></img>"", ""key_press"": null, ""test_part"": ""training"", ""next_elem"": ""Slide36"", ""trial_type"": ""html-keyboard-response"", ""trial_index"": 31, ""time_elapsed"": 66822, ""internal_node_id"": ""0.0-4.0-0.0-0.27"", ""uniqueId"": ""A2BV7O07LVX731:36W0OB37HXEI7USAKE6NWZ7QCVKZH5"", ""condition"": 0, ""counterbalance"": 0}"
A2BV7O07LVX731:36W0OB37HXEI7USAKE6NWZ7QCVKZH5,32,1595127578774,"{""rt"": null, ""stimulus"": ""<img src=\""/static/images/icons/Slide36.png\""></img>"", ""key_press"": null, ""test_part"": ""training"", ""next_elem"": ""Slide17"", ""trial_type"": ""html-keyboard-response"", ""trial_index"": 32, ""time_elapsed"": 68026, ""internal_node_id"": ""0.0-4.0-0.0-0.28"", ""uniqueId"": ""A2BV7O07LVX731:36W0OB37HXEI7USAKE6NWZ7QCVKZH5"", ""condition"": 0, ""counterbalance"": 0}"
A2BV7O07LVX731:36W0OB37HXEI7USAKE6NWZ7QCVKZH5,33,1595127582578,"{""rt"": null, ""stimulus"": ""Next sequence coming up.."", ""key_press"": null, ""test_part"": ""between_sequences"", ""trial_type"": ""html-keyboard-response"", ""trial_index"": 33, ""time_elapsed"": 71829, ""internal_node_id"": ""0.0-4.0-1.0"", ""uniqueId"": ""A2BV7O07LVX731:36W0OB37HXEI7USAKE6NWZ7QCVKZH5"", ""condition"": 0, ""counterbalance"": 0}"
A2BV7O07LVX731:36W0OB37HXEI7USAKE6NWZ7QCVKZH5,34,1595127583482,"{""rt"": null, ""stimulus"": ""<img src=\""/static/images/icons/Slide10.png\""></img>"", ""key_press"": null, ""test_part"": ""training"", ""next_elem"": ""Slide18"", ""trial_type"": ""html-keyboard-response"", ""trial_index"": 34, ""time_elapsed"": 72734, ""internal_node_id"": ""0.0-5.0-0.0-0.0"", ""uniqueId"": ""A2BV7O07LVX731:36W0OB37HXEI7USAKE6NWZ7QCVKZH5"", ""condition"": 0, ""counterbalance"": 0}"
A2BV7O07LVX731:36W0OB37HXEI7USAKE6NWZ7QCVKZH5,35,1595127584685,"{""rt"": null, ""stimulus"": ""<img src=\""/static/images/icons/Slide18.png\""></img>"", ""key_press"": null, ""test_part"": ""training"", ""next_elem"": ""Slide12"", ""trial_type"": ""html-keyboard-response"", ""trial_index"": 35, ""time_elapsed"": 73936, ""internal_node_id"": ""0.0-5.0-0.0-0.1"", ""uniqueId"": ""A2BV7O07LVX731:36W0OB37HXEI7USAKE6NWZ7QCVKZH5"", ""condition"": 0, ""counterbalance"": 0}"
A2BV7O07LVX731:36W0OB37HXEI7USAKE6NWZ7QCVKZH5,36,1595127585888,"{""rt"": null, ""stimulus"": ""<img src=\""/static/images/icons/Slide12.png\""></img>"", ""key_press"": null, ""test_part"": ""training"", ""next_elem"": ""Slide18"", ""trial_type"": ""html-keyboard-response"", ""trial_index"": 36, ""time_elapsed"": 75140, ""internal_node_id"": ""0.0-5.0-0.0-0.2"", ""uniqueId"": ""A2BV7O07LVX731:36W0OB37HXEI7USAKE6NWZ7QCVKZH5"", ""condition"": 0, ""counterbalance"": 0}"
A2BV7O07LVX731:36W0OB37HXEI7USAKE6NWZ7QCVKZH5,37,1595127587091,"{""rt"": null, ""stimulus"": ""<img src=\""/static/images/icons/Slide18.png\""></img>"", ""key_press"": null, ""test_part"": ""training"", ""next_elem"": ""Slide12"", ""trial_type"": ""html-keyboard-response"", ""trial_index"": 37, ""time_elapsed"": 76343, ""internal_node_id"": ""0.0-5.0-0.0-0.3"", ""uniqueId"": ""A2BV7O07LVX731:36W0OB37HXEI7USAKE6NWZ7QCVKZH5"", ""condition"": 0, ""counterbalance"": 0}"
A2BV7O07LVX731:36W0OB37HXEI7USAKE6NWZ7QCVKZH5,38,1595127588296,"{""rt"": null, ""stimulus"": ""<img src=\""/static/images/icons/Slide12.png\""></img>"", ""key_press"": null, ""test_part"": ""training"", ""next_elem"": ""Slide10"", ""trial_type"": ""html-keyboard-response"", ""trial_index"": 38, ""time_elapsed"": 77547, ""internal_node_id"": ""0.0-5.0-0.0-0.4"", ""uniqueId"": ""A2BV7O07LVX731:36W0OB37HXEI7USAKE6NWZ7QCVKZH5"", ""condition"": 0, ""counterbalance"": 0}"
A2BV7O07LVX731:36W0OB37HXEI7USAKE6NWZ7QCVKZH5,39,1595127589500,"{""rt"": null, ""stimulus"": ""<img src=\""/static/images/icons/Slide10.png\""></img>"", ""key_press"": null, ""test_part"": ""training"", ""next_elem"": ""Slide18"", ""trial_type"": ""html-keyboard-response"", ""trial_index"": 39, ""time_elapsed"": 78752, ""internal_node_id"": ""0.0-5.0-0.0-0.5"", ""uniqueId"": ""A2BV7O07LVX731:36W0OB37HXEI7USAKE6NWZ7QCVKZH5"", ""condition"": 0, ""counterbalance"": 0}"
A2BV7O07LVX731:36W0OB37HXEI7USAKE6NWZ7QCVKZH5,40,1595127590703,"{""rt"": null, ""stimulus"": ""<img src=\""/static/images/icons/Slide18.png\""></img>"", ""key_press"": null, ""test_part"": ""training"", ""next_elem"": ""Slide10"", ""trial_type"": ""html-keyboard-response"", ""trial_index"": 40, ""time_elapsed"": 79955, ""internal_node_id"": ""0.0-5.0-0.0-0.6"", ""uniqueId"": ""A2BV7O07LVX731:36W0OB37HXEI7USAKE6NWZ7QCVKZH5"", ""condition"": 0, ""counterbalance"": 0}"
A2BV7O07LVX731:36W0OB37HXEI7USAKE6NWZ7QCVKZH5,41,1595127591907,"{""rt"": null, ""stimulus"": ""<img src=\""/static/images/icons/Slide10.png\""></img>"", ""key_press"": null, ""test_part"": ""training"", ""next_elem"": ""Slide12"", ""trial_type"": ""html-keyboard-response"", ""trial_index"": 41, ""time_elapsed"": 81159, ""internal_node_id"": ""0.0-5.0-0.0-0.7"", ""uniqueId"": ""A2BV7O07LVX731:36W0OB37HXEI7USAKE6NWZ7QCVKZH5"", ""condition"": 0, ""counterbalance"": 0}"
A2BV7O07LVX731:36W0OB37HXEI7USAKE6NWZ7QCVKZH5,42,1595127593111,"{""rt"": null, ""stimulus"": ""<img src=\""/static/images/icons/Slide12.png\""></img>"", ""key_press"": null, ""test_part"": ""training"", ""next_elem"": ""Slide12"", ""trial_type"": ""html-keyboard-response"", ""trial_index"": 42, ""time_elapsed"": 82363, ""internal_node_id"": ""0.0-5.0-0.0-0.8"", ""uniqueId"": ""A2BV7O07LVX731:36W0OB37HXEI7USAKE6NWZ7QCVKZH5"", ""condition"": 0, ""counterbalance"": 0}"
A2BV7O07LVX731:36W0OB37HXEI7USAKE6NWZ7QCVKZH5,43,1595127594314,"{""rt"": null, ""stimulus"": ""<img src=\""/static/images/icons/Slide12.png\""></img>"", ""key_press"": null, ""test_part"": ""training"", ""next_elem"": ""Slide12"", ""trial_type"": ""html-keyboard-response"", ""trial_index"": 43, ""time_elapsed"": 83566, ""internal_node_id"": ""0.0-5.0-0.0-0.9"", ""uniqueId"": ""A2BV7O07LVX731:36W0OB37HXEI7USAKE6NWZ7QCVKZH5"", ""condition"": 0, ""counterbalance"": 0}"
A2BV7O07LVX731:36W0OB37HXEI7USAKE6NWZ7QCVKZH5,44,1595127595519,"{""rt"": null, ""stimulus"": ""<img src=\""/static/images/icons/Slide12.png\""></img>"", ""key_press"": null, ""test_part"": ""training"", ""next_elem"": ""Slide18"", ""trial_type"": ""html-keyboard-response"", ""trial_index"": 44, ""time_elapsed"": 84771, ""internal_node_id"": ""0.0-5.0-0.0-0.10"", ""uniqueId"": ""A2BV7O07LVX731:36W0OB37HXEI7USAKE6NWZ7QCVKZH5"", ""condition"": 0, ""counterbalance"": 0}"
A2BV7O07LVX731:36W0OB37HXEI7USAKE6NWZ7QCVKZH5,45,1595127596722,"{""rt"": null, ""stimulus"": ""<img src=\""/static/images/icons/Slide18.png\""></img>"", ""key_press"": null, ""test_part"": ""training"", ""next_elem"": ""Slide10"", ""trial_type"": ""html-keyboard-response"", ""trial_index"": 45, ""time_elapsed"": 85973, ""internal_node_id"": ""0.0-5.0-0.0-0.11"", ""uniqueId"": ""A2BV7O07LVX731:36W0OB37HXEI7USAKE6NWZ7QCVKZH5"", ""condition"": 0, ""counterbalance"": 0}"
A2BV7O07LVX731:36W0OB37HXEI7USAKE6NWZ7QCVKZH5,46,1595127597925,"{""rt"": null, ""stimulus"": ""<img src=\""/static/images/icons/Slide10.png\""></img>"", ""key_press"": null, ""test_part"": ""training"", ""next_elem"": ""Slide10"", ""trial_type"": ""html-keyboard-response"", ""trial_index"": 46, ""time_elapsed"": 87177, ""internal_node_id"": ""0.0-5.0-0.0-0.12"", ""uniqueId"": ""A2BV7O07LVX731:36W0OB37HXEI7USAKE6NWZ7QCVKZH5"", ""condition"": 0, ""counterbalance"": 0}"
A2BV7O07LVX731:36W0OB37HXEI7USAKE6NWZ7QCVKZH5,47,1595127599129,"{""rt"": null, ""stimulus"": ""<img src=\""/static/images/icons/Slide10.png\""></img>"", ""key_press"": null, ""test_part"": ""training"", ""next_elem"": ""Slide12"", ""trial_type"": ""html-keyboard-response"", ""trial_index"": 47, ""time_elapsed"": 88380, ""internal_node_id"": ""0.0-5.0-0.0-0.13"", ""uniqueId"": ""A2BV7O07LVX731:36W0OB37HXEI7USAKE6NWZ7QCVKZH5"", ""condition"": 0, ""counterbalance"": 0}"
A2BV7O07LVX731:36W0OB37HXEI7USAKE6NWZ7QCVKZH5,48,1595127600332,"{""rt"": null, ""stimulus"": ""<img src=\""/static/images/icons/Slide12.png\""></img>"", ""key_press"": null, ""test_part"": ""training"", ""next_elem"": ""Slide18"", ""trial_type"": ""html-keyboard-response"", ""trial_index"": 48, ""time_elapsed"": 89584, ""internal_node_id"": ""0.0-5.0-0.0-0.14"", ""uniqueId"": ""A2BV7O07LVX731:36W0OB37HXEI7USAKE6NWZ7QCVKZH5"", ""condition"": 0, ""counterbalance"": 0}"
A2BV7O07LVX731:36W0OB37HXEI7USAKE6NWZ7QCVKZH5,49,1595127601537,"{""rt"": null, ""stimulus"": ""<img src=\""/static/images/icons/Slide18.png\""></img>"", ""key_press"": null, ""test_part"": ""training"", ""next_elem"": ""Slide18"", ""trial_type"": ""html-keyboard-response"", ""trial_index"": 49, ""time_elapsed"": 90789, ""internal_node_id"": ""0.0-5.0-0.0-0.15"", ""uniqueId"": ""A2BV7O07LVX731:36W0OB37HXEI7USAKE6NWZ7QCVKZH5"", ""condition"": 0, ""counterbalance"": 0}"
A2BV7O07LVX731:36W0OB37HXEI7USAKE6NWZ7QCVKZH5,50,1595127602740,"{""rt"": null, ""stimulus"": ""<img src=\""/static/images/icons/Slide18.png\""></img>"", ""key_press"": null, ""test_part"": ""training"", ""next_elem"": ""Slide18"", ""trial_type"": ""html-keyboard-response"", ""trial_index"": 50, ""time_elapsed"": 91992, ""internal_node_id"": ""0.0-5.0-0.0-0.16"", ""uniqueId"": ""A2BV7O07LVX731:36W0OB37HXEI7USAKE6NWZ7QCVKZH5"", ""condition"": 0, ""counterbalance"": 0}"
A2BV7O07LVX731:36W0OB37HXEI7USAKE6NWZ7QCVKZH5,51,1595127603944,"{""rt"": null, ""stimulus"": ""<img src=\""/static/images/icons/Slide18.png\""></img>"", ""key_press"": null, ""test_part"": ""training"", ""next_elem"": ""Slide10"", ""trial_type"": ""html-keyboard-response"", ""trial_index"": 51, ""time_elapsed"": 93196, ""internal_node_id"": ""0.0-5.0-0.0-0.17"", ""uniqueId"": ""A2BV7O07LVX731:36W0OB37HXEI7USAKE6NWZ7QCVKZH5"", ""condition"": 0, ""counterbalance"": 0}"
A2BV7O07LVX731:36W0OB37HXEI7USAKE6NWZ7QCVKZH5,52,1595127605148,"{""rt"": null, ""stimulus"": ""<img src=\""/static/images/icons/Slide10.png\""></img>"", ""key_press"": null, ""test_part"": ""training"", ""next_elem"": ""Slide18"", ""trial_type"": ""html-keyboard-response"", ""trial_index"": 52, ""time_elapsed"": 94399, ""internal_node_id"": ""0.0-5.0-0.0-0.18"", ""uniqueId"": ""A2BV7O07LVX731:36W0OB37HXEI7USAKE6NWZ7QCVKZH5"", ""condition"": 0, ""counterbalance"": 0}"
A2BV7O07LVX731:36W0OB37HXEI7USAKE6NWZ7QCVKZH5,53,1595127606351,"{""rt"": null, ""stimulus"": ""<img src=\""/static/images/icons/Slide18.png\""></img>"", ""key_press"": null, ""test_part"": ""training"", ""next_elem"": ""Slide10"", ""trial_type"": ""html-keyboard-response"", ""trial_index"": 53, ""time_elapsed"": 95603, ""internal_node_id"": ""0.0-5.0-0.0-0.19"", ""uniqueId"": ""A2BV7O07LVX731:36W0OB37HXEI7USAKE6NWZ7QCVKZH5"", ""condition"": 0, ""counterbalance"": 0}"
A2BV7O07LVX731:36W0OB37HXEI7USAKE6NWZ7QCVKZH5,54,1595127607555,"{""rt"": null, ""stimulus"": ""<img src=\""/static/images/icons/Slide10.png\""></img>"", ""key_press"": null, ""test_part"": ""training"", ""next_elem"": ""Slide18"", ""trial_type"": ""html-keyboard-response"", ""trial_index"": 54, ""time_elapsed"": 96806, ""internal_node_id"": ""0.0-5.0-0.0-0.20"", ""uniqueId"": ""A2BV7O07LVX731:36W0OB37HXEI7USAKE6NWZ7QCVKZH5"", ""condition"": 0, ""counterbalance"": 0}"
A2BV7O07LVX731:36W0OB37HXEI7USAKE6NWZ7QCVKZH5,55,1595127608759,"{""rt"": null, ""stimulus"": ""<img src=\""/static/images/icons/Slide18.png\""></img>"", ""key_press"": null, ""test_part"": ""training"", ""next_elem"": ""Slide18"", ""trial_type"": ""html-keyboard-response"", ""trial_index"": 55, ""time_elapsed"": 98011, ""internal_node_id"": ""0.0-5.0-0.0-0.21"", ""uniqueId"": ""A2BV7O07LVX731:36W0OB37HXEI7USAKE6NWZ7QCVKZH5"", ""condition"": 0, ""counterbalance"": 0}"
A2BV7O07LVX731:36W0OB37HXEI7USAKE6NWZ7QCVKZH5,56,1595127609964,"{""rt"": null, ""stimulus"": ""<img src=\""/static/images/icons/Slide18.png\""></img>"", ""key_press"": null, ""test_part"": ""training"", ""next_elem"": ""Slide12"", ""trial_type"": ""html-keyboard-response"", ""trial_index"": 56, ""time_elapsed"": 99216, ""internal_node_id"": ""0.0-5.0-0.0-0.22"", ""uniqueId"": ""A2BV7O07LVX731:36W0OB37HXEI7USAKE6NWZ7QCVKZH5"", ""condition"": 0, ""counterbalance"": 0}"
A2BV7O07LVX731:36W0OB37HXEI7USAKE6NWZ7QCVKZH5,57,1595127611168,"{""rt"": null, ""stimulus"": ""<img src=\""/static/images/icons/Slide12.png\""></img>"", ""key_press"": null, ""test_part"": ""training"", ""next_elem"": ""Slide10"", ""trial_type"": ""html-keyboard-response"", ""trial_index"": 57, ""time_elapsed"": 100420, ""internal_node_id"": ""0.0-5.0-0.0-0.23"", ""uniqueId"": ""A2BV7O07LVX731:36W0OB37HXEI7USAKE6NWZ7QCVKZH5"", ""condition"": 0, ""counterbalance"": 0}"
A2BV7O07LVX731:36W0OB37HXEI7USAKE6NWZ7QCVKZH5,58,1595127612372,"{""rt"": null, ""stimulus"": ""<img src=\""/static/images/icons/Slide10.png\""></img>"", ""key_press"": null, ""test_part"": ""training"", ""next_elem"": ""Slide10"", ""trial_type"": ""html-keyboard-response"", ""trial_index"": 58, ""time_elapsed"": 101624, ""internal_node_id"": ""0.0-5.0-0.0-0.24"", ""uniqueId"": ""A2BV7O07LVX731:36W0OB37HXEI7USAKE6NWZ7QCVKZH5"", ""condition"": 0, ""counterbalance"": 0}"
A2BV7O07LVX731:36W0OB37HXEI7USAKE6NWZ7QCVKZH5,59,1595127613575,"{""rt"": null, ""stimulus"": ""<img src=\""/static/images/icons/Slide10.png\""></img>"", ""key_press"": null, ""test_part"": ""training"", ""next_elem"": ""Slide10"", ""trial_type"": ""html-keyboard-response"", ""trial_index"": 59, ""time_elapsed"": 102827, ""internal_node_id"": ""0.0-5.0-0.0-0.25"", ""uniqueId"": ""A2BV7O07LVX731:36W0OB37HXEI7USAKE6NWZ7QCVKZH5"", ""condition"": 0, ""counterbalance"": 0}"
A2BV7O07LVX731:36W0OB37HXEI7USAKE6NWZ7QCVKZH5,60,1595127614779,"{""rt"": null, ""stimulus"": ""<img src=\""/static/images/icons/Slide10.png\""></img>"", ""key_press"": null, ""test_part"": ""training"", ""next_elem"": ""Slide12"", ""trial_type"": ""html-keyboard-response"", ""trial_index"": 60, ""time_elapsed"": 104030, ""internal_node_id"": ""0.0-5.0-0.0-0.26"", ""uniqueId"": ""A2BV7O07LVX731:36W0OB37HXEI7USAKE6NWZ7QCVKZH5"", ""condition"": 0, ""counterbalance"": 0}"
A2BV7O07LVX731:36W0OB37HXEI7USAKE6NWZ7QCVKZH5,61,1595127615983,"{""rt"": null, ""stimulus"": ""<img src=\""/static/images/icons/Slide12.png\""></img>"", ""key_press"": null, ""test_part"": ""training"", ""next_elem"": ""Slide10"", ""trial_type"": ""html-keyboard-response"", ""trial_index"": 61, ""time_elapsed"": 105235, ""internal_node_id"": ""0.0-5.0-0.0-0.27"", ""uniqueId"": ""A2BV7O07LVX731:36W0OB37HXEI7USAKE6NWZ7QCVKZH5"", ""condition"": 0, ""counterbalance"": 0}"
A2BV7O07LVX731:36W0OB37HXEI7USAKE6NWZ7QCVKZH5,62,1595127617187,"{""rt"": null, ""stimulus"": ""<img src=\""/static/images/icons/Slide10.png\""></img>"", ""key_press"": null, ""test_part"": ""training"", ""next_elem"": ""Slide12"", ""trial_type"": ""html-keyboard-response"", ""trial_index"": 62, ""time_elapsed"": 106438, ""internal_node_id"": ""0.0-5.0-0.0-0.28"", ""uniqueId"": ""A2BV7O07LVX731:36W0OB37HXEI7USAKE6NWZ7QCVKZH5"", ""condition"": 0, ""counterbalance"": 0}"
A2BV7O07LVX731:36W0OB37HXEI7USAKE6NWZ7QCVKZH5,63,1595127620990,"{""rt"": null, ""stimulus"": ""Next sequence coming up.."", ""key_press"": null, ""test_part"": ""between_sequences"", ""trial_type"": ""html-keyboard-response"", ""trial_index"": 63, ""time_elapsed"": 110241, ""internal_node_id"": ""0.0-5.0-1.0"", ""uniqueId"": ""A2BV7O07LVX731:36W0OB37HXEI7USAKE6NWZ7QCVKZH5"", ""condition"": 0, ""counterbalance"": 0}"
A2BV7O07LVX731:36W0OB37HXEI7USAKE6NWZ7QCVKZH5,64,1595127621893,"{""rt"": null, ""stimulus"": ""<img src=\""/static/images/icons/Slide25.png\""></img>"", ""key_press"": null, ""test_part"": ""training"", ""next_elem"": ""Slide52"", ""trial_type"": ""html-keyboard-response"", ""trial_index"": 64, ""time_elapsed"": 111144, ""internal_node_id"": ""0.0-6.0-0.0-0.0"", ""uniqueId"": ""A2BV7O07LVX731:36W0OB37HXEI7USAKE6NWZ7QCVKZH5"", ""condition"": 0, ""counterbalance"": 0}"
A2BV7O07LVX731:36W0OB37HXEI7USAKE6NWZ7QCVKZH5,65,1595127623096,"{""rt"": null, ""stimulus"": ""<img src=\""/static/images/icons/Slide52.png\""></img>"", ""key_press"": null, ""test_part"": ""training"", ""next_elem"": ""Slide28"", ""trial_type"": ""html-keyboard-response"", ""trial_index"": 65, ""time_elapsed"": 112348, ""internal_node_id"": ""0.0-6.0-0.0-0.1"", ""uniqueId"": ""A2BV7O07LVX731:36W0OB37HXEI7USAKE6NWZ7QCVKZH5"", ""condition"": 0, ""counterbalance"": 0}"
A2BV7O07LVX731:36W0OB37HXEI7USAKE6NWZ7QCVKZH5,66,1595127624299,"{""rt"": null, ""stimulus"": ""<img src=\""/static/images/icons/Slide28.png\""></img>"", ""key_press"": null, ""test_part"": ""training"", ""next_elem"": ""Slide52"", ""trial_type"": ""html-keyboard-response"", ""trial_index"": 66, ""time_elapsed"": 113551, ""internal_node_id"": ""0.0-6.0-0.0-0.2"", ""uniqueId"": ""A2BV7O07LVX731:36W0OB37HXEI7USAKE6NWZ7QCVKZH5"", ""condition"": 0, ""counterbalance"": 0}"
A2BV7O07LVX731:36W0OB37HXEI7USAKE6NWZ7QCVKZH5,67,1595127625501,"{""rt"": null, ""stimulus"": ""<img src=\""/static/images/icons/Slide52.png\""></img>"", ""key_press"": null, ""test_part"": ""training"", ""next_elem"": ""Slide28"", ""trial_type"": ""html-keyboard-response"", ""trial_index"": 67, ""time_elapsed"": 114753, ""internal_node_id"": ""0.0-6.0-0.0-0.3"", ""uniqueId"": ""A2BV7O07LVX731:36W0OB37HXEI7USAKE6NWZ7QCVKZH5"", ""condition"": 0, ""counterbalance"": 0}"
A2BV7O07LVX731:36W0OB37HXEI7USAKE6NWZ7QCVKZH5,68,1595127626713,"{""rt"": null, ""stimulus"": ""<img src=\""/static/images/icons/Slide28.png\""></img>"", ""key_press"": null, ""test_part"": ""training"", ""next_elem"": ""Slide25"", ""trial_type"": ""html-keyboard-response"", ""trial_index"": 68, ""time_elapsed"": 115957, ""internal_node_id"": ""0.0-6.0-0.0-0.4"", ""uniqueId"": ""A2BV7O07LVX731:36W0OB37HXEI7USAKE6NWZ7QCVKZH5"", ""condition"": 0, ""counterbalance"": 0}"
A2BV7O07LVX731:36W0OB37HXEI7USAKE6NWZ7QCVKZH5,69,1595127627918,"{""rt"": null, ""stimulus"": ""<img src=\""/static/images/icons/Slide25.png\""></img>"", ""key_press"": null, ""test_part"": ""training"", ""next_elem"": ""Slide52"", ""trial_type"": ""html-keyboard-response"", ""trial_index"": 69, ""time_elapsed"": 117170, ""internal_node_id"": ""0.0-6.0-0.0-0.5"", ""uniqueId"": ""A2BV7O07LVX731:36W0OB37HXEI7USAKE6NWZ7QCVKZH5"", ""condition"": 0, ""counterbalance"": 0}"
A2BV7O07LVX731:36W0OB37HXEI7USAKE6NWZ7QCVKZH5,70,1595127629122,"{""rt"": null, ""stimulus"": ""<img src=\""/static/images/icons/Slide52.png\""></img>"", ""key_press"": null, ""test_part"": ""training"", ""next_elem"": ""Slide25"", ""trial_type"": ""html-keyboard-response"", ""trial_index"": 70, ""time_elapsed"": 118373, ""internal_node_id"": ""0.0-6.0-0.0-0.6"", ""uniqueId"": ""A2BV7O07LVX731:36W0OB37HXEI7USAKE6NWZ7QCVKZH5"", ""condition"": 0, ""counterbalance"": 0}"
A2BV7O07LVX731:36W0OB37HXEI7USAKE6NWZ7QCVKZH5,71,1595127630327,"{""rt"": null, ""stimulus"": ""<img src=\""/static/images/icons/Slide25.png\""></img>"", ""key_press"": null, ""test_part"": ""training"", ""next_elem"": ""Slide28"", ""trial_type"": ""html-keyboard-response"", ""trial_index"": 71, ""time_elapsed"": 119579, ""internal_node_id"": ""0.0-6.0-0.0-0.7"", ""uniqueId"": ""A2BV7O07LVX731:36W0OB37HXEI7USAKE6NWZ7QCVKZH5"", ""condition"": 0, ""counterbalance"": 0}"
A2BV7O07LVX731:36W0OB37HXEI7USAKE6NWZ7QCVKZH5,72,1595127631530,"{""rt"": null, ""stimulus"": ""<img src=\""/static/images/icons/Slide28.png\""></img>"", ""key_press"": null, ""test_part"": ""training"", ""next_elem"": ""Slide28"", ""trial_type"": ""html-keyboard-response"", ""trial_index"": 72, ""time_elapsed"": 120782, ""internal_node_id"": ""0.0-6.0-0.0-0.8"", ""uniqueId"": ""A2BV7O07LVX731:36W0OB37HXEI7USAKE6NWZ7QCVKZH5"", ""condition"": 0, ""counterbalance"": 0}"
A2BV7O07LVX731:36W0OB37HXEI7USAKE6NWZ7QCVKZH5,73,1595127632734,"{""rt"": null, ""stimulus"": ""<img src=\""/static/images/icons/Slide28.png\""></img>"", ""key_press"": null, ""test_part"": ""training"", ""next_elem"": ""Slide28"", ""trial_type"": ""html-keyboard-response"", ""trial_index"": 73, ""time_elapsed"": 121985, ""internal_node_id"": ""0.0-6.0-0.0-0.9"", ""uniqueId"": ""A2BV7O07LVX731:36W0OB37HXEI7USAKE6NWZ7QCVKZH5"", ""condition"": 0, ""counterbalance"": 0}"
A2BV7O07LVX731:36W0OB37HXEI7USAKE6NWZ7QCVKZH5,74,1595127633938,"{""rt"": null, ""stimulus"": ""<img src=\""/static/images/icons/Slide28.png\""></img>"", ""key_press"": null, ""test_part"": ""training"", ""next_elem"": ""Slide52"", ""trial_type"": ""html-keyboard-response"", ""trial_index"": 74, ""time_elapsed"": 123190, ""internal_node_id"": ""0.0-6.0-0.0-0.10"", ""uniqueId"": ""A2BV7O07LVX731:36W0OB37HXEI7USAKE6NWZ7QCVKZH5"", ""condition"": 0, ""counterbalance"": 0}"
A2BV7O07LVX731:36W0OB37HXEI7USAKE6NWZ7QCVKZH5,75,1595127635140,"{""rt"": null, ""stimulus"": ""<img src=\""/static/images/icons/Slide52.png\""></img>"", ""key_press"": null, ""test_part"": ""training"", ""next_elem"": ""Slide25"", ""trial_type"": ""html-keyboard-response"", ""trial_index"": 75, ""time_elapsed"": 124392, ""internal_node_id"": ""0.0-6.0-0.0-0.11"", ""uniqueId"": ""A2BV7O07LVX731:36W0OB37HXEI7USAKE6NWZ7QCVKZH5"", ""condition"": 0, ""counterbalance"": 0}"
A2BV7O07LVX731:36W0OB37HXEI7USAKE6NWZ7QCVKZH5,76,1595127636343,"{""rt"": null, ""stimulus"": ""<img src=\""/static/images/icons/Slide25.png\""></img>"", ""key_press"": null, ""test_part"": ""training"", ""next_elem"": ""Slide25"", ""trial_type"": ""html-keyboard-response"", ""trial_index"": 76, ""time_elapsed"": 125595, ""internal_node_id"": ""0.0-6.0-0.0-0.12"", ""uniqueId"": ""A2BV7O07LVX731:36W0OB37HXEI7USAKE6NWZ7QCVKZH5"", ""condition"": 0, ""counterbalance"": 0}"
A2BV7O07LVX731:36W0OB37HXEI7USAKE6NWZ7QCVKZH5,77,1595127637548,"{""rt"": null, ""stimulus"": ""<img src=\""/static/images/icons/Slide25.png\""></img>"", ""key_press"": null, ""test_part"": ""training"", ""next_elem"": ""Slide28"", ""trial_type"": ""html-keyboard-response"", ""trial_index"": 77, ""time_elapsed"": 126800, ""internal_node_id"": ""0.0-6.0-0.0-0.13"", ""uniqueId"": ""A2BV7O07LVX731:36W0OB37HXEI7USAKE6NWZ7QCVKZH5"", ""condition"": 0, ""counterbalance"": 0}"
A2BV7O07LVX731:36W0OB37HXEI7USAKE6NWZ7QCVKZH5,78,1595127638750,"{""rt"": null, ""stimulus"": ""<img src=\""/static/images/icons/Slide28.png\""></img>"", ""key_press"": null, ""test_part"": ""training"", ""next_elem"": ""Slide52"", ""trial_type"": ""html-keyboard-response"", ""trial_index"": 78, ""time_elapsed"": 128002, ""internal_node_id"": ""0.0-6.0-0.0-0.14"", ""uniqueId"": ""A2BV7O07LVX731:36W0OB37HXEI7USAKE6NWZ7QCVKZH5"", ""condition"": 0, ""counterbalance"": 0}"
A2BV7O07LVX731:36W0OB37HXEI7USAKE6NWZ7QCVKZH5,79,1595127639955,"{""rt"": null, ""stimulus"": ""<img src=\""/static/images/icons/Slide52.png\""></img>"", ""key_press"": null, ""test_part"": ""training"", ""next_elem"": ""Slide52"", ""trial_type"": ""html-keyboard-response"", ""trial_index"": 79, ""time_elapsed"": 129207, ""internal_node_id"": ""0.0-6.0-0.0-0.15"", ""uniqueId"": ""A2BV7O07LVX731:36W0OB37HXEI7USAKE6NWZ7QCVKZH5"", ""condition"": 0, ""counterbalance"": 0}"
A2BV7O07LVX731:36W0OB37HXEI7USAKE6NWZ7QCVKZH5,80,1595127641159,"{""rt"": null, ""stimulus"": ""<img src=\""/static/images/icons/Slide52.png\""></img>"", ""key_press"": null, ""test_part"": ""training"", ""next_elem"": ""Slide52"", ""trial_type"": ""html-keyboard-response"", ""trial_index"": 80, ""time_elapsed"": 130411, ""internal_node_id"": ""0.0-6.0-0.0-0.16"", ""uniqueId"": ""A2BV7O07LVX731:36W0OB37HXEI7USAKE6NWZ7QCVKZH5"", ""condition"": 0, ""counterbalance"": 0}"
A2BV7O07LVX731:36W0OB37HXEI7USAKE6NWZ7QCVKZH5,81,1595127642363,"{""rt"": null, ""stimulus"": ""<img src=\""/static/images/icons/Slide52.png\""></img>"", ""key_press"": null, ""test_part"": ""training"", ""next_elem"": ""Slide25"", ""trial_type"": ""html-keyboard-response"", ""trial_index"": 81, ""time_elapsed"": 131615, ""internal_node_id"": ""0.0-6.0-0.0-0.17"", ""uniqueId"": ""A2BV7O07LVX731:36W0OB37HXEI7USAKE6NWZ7QCVKZH5"", ""condition"": 0, ""counterbalance"": 0}"
A2BV7O07LVX731:36W0OB37HXEI7USAKE6NWZ7QCVKZH5,82,1595127643566,"{""rt"": null, ""stimulus"": ""<img src=\""/static/images/icons/Slide25.png\""></img>"", ""key_press"": null, ""test_part"": ""training"", ""next_elem"": ""Slide52"", ""trial_type"": ""html-keyboard-response"", ""trial_index"": 82, ""time_elapsed"": 132818, ""internal_node_id"": ""0.0-6.0-0.0-0.18"", ""uniqueId"": ""A2BV7O07LVX731:36W0OB37HXEI7USAKE6NWZ7QCVKZH5"", ""condition"": 0, ""counterbalance"": 0}"
A2BV7O07LVX731:36W0OB37HXEI7USAKE6NWZ7QCVKZH5,83,1595127644770,"{""rt"": null, ""stimulus"": ""<img src=\""/static/images/icons/Slide52.png\""></img>"", ""key_press"": null, ""test_part"": ""training"", ""next_elem"": ""Slide25"", ""trial_type"": ""html-keyboard-response"", ""trial_index"": 83, ""time_elapsed"": 134022, ""internal_node_id"": ""0.0-6.0-0.0-0.19"", ""uniqueId"": ""A2BV7O07LVX731:36W0OB37HXEI7USAKE6NWZ7QCVKZH5"", ""condition"": 0, ""counterbalance"": 0}"
A2BV7O07LVX731:36W0OB37HXEI7USAKE6NWZ7QCVKZH5,84,1595127645973,"{""rt"": null, ""stimulus"": ""<img src=\""/static/images/icons/Slide25.png\""></img>"", ""key_press"": null, ""test_part"": ""training"", ""next_elem"": ""Slide52"", ""trial_type"": ""html-keyboard-response"", ""trial_index"": 84, ""time_elapsed"": 135224, ""internal_node_id"": ""0.0-6.0-0.0-0.20"", ""uniqueId"": ""A2BV7O07LVX731:36W0OB37HXEI7USAKE6NWZ7QCVKZH5"", ""condition"": 0, ""counterbalance"": 0}"
A2BV7O07LVX731:36W0OB37HXEI7USAKE6NWZ7QCVKZH5,85,1595127647176,"{""rt"": null, ""stimulus"": ""<img src=\""/static/images/icons/Slide52.png\""></img>"", ""key_press"": null, ""test_part"": ""training"", ""next_elem"": ""Slide52"", ""trial_type"": ""html-keyboard-response"", ""trial_index"": 85, ""time_elapsed"": 136428, ""internal_node_id"": ""0.0-6.0-0.0-0.21"", ""uniqueId"": ""A2BV7O07LVX731:36W0OB37HXEI7USAKE6NWZ7QCVKZH5"", ""condition"": 0, ""counterbalance"": 0}"
A2BV7O07LVX731:36W0OB37HXEI7USAKE6NWZ7QCVKZH5,86,1595127648379,"{""rt"": null, ""stimulus"": ""<img src=\""/static/images/icons/Slide52.png\""></img>"", ""key_press"": null, ""test_part"": ""training"", ""next_elem"": ""Slide28"", ""trial_type"": ""html-keyboard-response"", ""trial_index"": 86, ""time_elapsed"": 137631, ""internal_node_id"": ""0.0-6.0-0.0-0.22"", ""uniqueId"": ""A2BV7O07LVX731:36W0OB37HXEI7USAKE6NWZ7QCVKZH5"", ""condition"": 0, ""counterbalance"": 0}"
A2BV7O07LVX731:36W0OB37HXEI7USAKE6NWZ7QCVKZH5,87,1595127649582,"{""rt"": null, ""stimulus"": ""<img src=\""/static/images/icons/Slide28.png\""></img>"", ""key_press"": null, ""test_part"": ""training"", ""next_elem"": ""Slide25"", ""trial_type"": ""html-keyboard-response"", ""trial_index"": 87, ""time_elapsed"": 138834, ""internal_node_id"": ""0.0-6.0-0.0-0.23"", ""uniqueId"": ""A2BV7O07LVX731:36W0OB37HXEI7USAKE6NWZ7QCVKZH5"", ""condition"": 0, ""counterbalance"": 0}"
A2BV7O07LVX731:36W0OB37HXEI7USAKE6NWZ7QCVKZH5,88,1595127650785,"{""rt"": null, ""stimulus"": ""<img src=\""/static/images/icons/Slide25.png\""></img>"", ""key_press"": null, ""test_part"": ""training"", ""next_elem"": ""Slide25"", ""trial_type"": ""html-keyboard-response"", ""trial_index"": 88, ""time_elapsed"": 140037, ""internal_node_id"": ""0.0-6.0-0.0-0.24"", ""uniqueId"": ""A2BV7O07LVX731:36W0OB37HXEI7USAKE6NWZ7QCVKZH5"", ""condition"": 0, ""counterbalance"": 0}"
A2BV7O07LVX731:36W0OB37HXEI7USAKE6NWZ7QCVKZH5,89,1595127651989,"{""rt"": null, ""stimulus"": ""<img src=\""/static/images/icons/Slide25.png\""></img>"", ""key_press"": null, ""test_part"": ""training"", ""next_elem"": ""Slide25"", ""trial_type"": ""html-keyboard-response"", ""trial_index"": 89, ""time_elapsed"": 141241, ""internal_node_id"": ""0.0-6.0-0.0-0.25"", ""uniqueId"": ""A2BV7O07LVX731:36W0OB37HXEI7USAKE6NWZ7QCVKZH5"", ""condition"": 0, ""counterbalance"": 0}"
A2BV7O07LVX731:36W0OB37HXEI7USAKE6NWZ7QCVKZH5,90,1595127653192,"{""rt"": null, ""stimulus"": ""<img src=\""/static/images/icons/Slide25.png\""></img>"", ""key_press"": null, ""test_part"": ""training"", ""next_elem"": ""Slide28"", ""trial_type"": ""html-keyboard-response"", ""trial_index"": 90, ""time_elapsed"": 142444, ""internal_node_id"": ""0.0-6.0-0.0-0.26"", ""uniqueId"": ""A2BV7O07LVX731:36W0OB37HXEI7USAKE6NWZ7QCVKZH5"", ""condition"": 0, ""counterbalance"": 0}"
A2BV7O07LVX731:36W0OB37HXEI7USAKE6NWZ7QCVKZH5,91,1595127654395,"{""rt"": null, ""stimulus"": ""<img src=\""/static/images/icons/Slide28.png\""></img>"", ""key_press"": null, ""test_part"": ""training"", ""next_elem"": ""Slide25"", ""trial_type"": ""html-keyboard-response"", ""trial_index"": 91, ""time_elapsed"": 143647, ""internal_node_id"": ""0.0-6.0-0.0-0.27"", ""uniqueId"": ""A2BV7O07LVX731:36W0OB37HXEI7USAKE6NWZ7QCVKZH5"", ""condition"": 0, ""counterbalance"": 0}"
A2BV7O07LVX731:36W0OB37HXEI7USAKE6NWZ7QCVKZH5,92,1595127655597,"{""rt"": null, ""stimulus"": ""<img src=\""/static/images/icons/Slide25.png\""></img>"", ""key_press"": null, ""test_part"": ""training"", ""next_elem"": ""Slide28"", ""trial_type"": ""html-keyboard-response"", ""trial_index"": 92, ""time_elapsed"": 144849, ""internal_node_id"": ""0.0-6.0-0.0-0.28"", ""uniqueId"": ""A2BV7O07LVX731:36W0OB37HXEI7USAKE6NWZ7QCVKZH5"", ""condition"": 0, ""counterbalance"": 0}"
A2BV7O07LVX731:36W0OB37HXEI7USAKE6NWZ7QCVKZH5,93,1595127659398,"{""rt"": null, ""stimulus"": ""Next sequence coming up.."", ""key_press"": null, ""test_part"": ""between_sequences"", ""trial_type"": ""html-keyboard-response"", ""trial_index"": 93, ""time_elapsed"": 148650, ""internal_node_id"": ""0.0-6.0-1.0"", ""uniqueId"": ""A2BV7O07LVX731:36W0OB37HXEI7USAKE6NWZ7QCVKZH5"", ""condition"": 0, ""counterbalance"": 0}"
A2BV7O07LVX731:36W0OB37HXEI7USAKE6NWZ7QCVKZH5,94,1595127660301,"{""rt"": null, ""stimulus"": ""<img src=\""/static/images/icons/Slide19.png\""></img>"", ""key_press"": null, ""test_part"": ""training"", ""next_elem"": ""Slide44"", ""trial_type"": ""html-keyboard-response"", ""trial_index"": 94, ""time_elapsed"": 149553, ""internal_node_id"": ""0.0-7.0-0.0-0.0"", ""uniqueId"": ""A2BV7O07LVX731:36W0OB37HXEI7USAKE6NWZ7QCVKZH5"", ""condition"": 0, ""counterbalance"": 0}"
A2BV7O07LVX731:36W0OB37HXEI7USAKE6NWZ7QCVKZH5,95,1595127661505,"{""rt"": null, ""stimulus"": ""<img src=\""/static/images/icons/Slide44.png\""></img>"", ""key_press"": null, ""test_part"": ""training"", ""next_elem"": ""Slide46"", ""trial_type"": ""html-keyboard-response"", ""trial_index"": 95, ""time_elapsed"": 150756, ""internal_node_id"": ""0.0-7.0-0.0-0.1"", ""uniqueId"": ""A2BV7O07LVX731:36W0OB37HXEI7USAKE6NWZ7QCVKZH5"", ""condition"": 0, ""counterbalance"": 0}"
A2BV7O07LVX731:36W0OB37HXEI7USAKE6NWZ7QCVKZH5,96,1595127662717,"{""rt"": null, ""stimulus"": ""<img src=\""/static/images/icons/Slide46.png\""></img>"", ""key_press"": null, ""test_part"": ""training"", ""next_elem"": ""Slide44"", ""trial_type"": ""html-keyboard-response"", ""trial_index"": 96, ""time_elapsed"": 151969, ""internal_node_id"": ""0.0-7.0-0.0-0.2"", ""uniqueId"": ""A2BV7O07LVX731:36W0OB37HXEI7USAKE6NWZ7QCVKZH5"", ""condition"": 0, ""counterbalance"": 0}"
A2BV7O07LVX731:36W0OB37HXEI7USAKE6NWZ7QCVKZH5,97,1595127663920,"{""rt"": null, ""stimulus"": ""<img src=\""/static/images/icons/Slide44.png\""></img>"", ""key_press"": null, ""test_part"": ""training"", ""next_elem"": ""Slide46"", ""trial_type"": ""html-keyboard-response"", ""trial_index"": 97, ""time_elapsed"": 153172, ""internal_node_id"": ""0.0-7.0-0.0-0.3"", ""uniqueId"": ""A2BV7O07LVX731:36W0OB37HXEI7USAKE6NWZ7QCVKZH5"", ""condition"": 0, ""counterbalance"": 0}"
A2BV7O07LVX731:36W0OB37HXEI7USAKE6NWZ7QCVKZH5,98,1595127665124,"{""rt"": null, ""stimulus"": ""<img src=\""/static/images/icons/Slide46.png\""></img>"", ""key_press"": null, ""test_part"": ""training"", ""next_elem"": ""Slide19"", ""trial_type"": ""html-keyboard-response"", ""trial_index"": 98, ""time_elapsed"": 154375, ""internal_node_id"": ""0.0-7.0-0.0-0.4"", ""uniqueId"": ""A2BV7O07LVX731:36W0OB37HXEI7USAKE6NWZ7QCVKZH5"", ""condition"": 0, ""counterbalance"": 0}"
A2BV7O07LVX731:36W0OB37HXEI7USAKE6NWZ7QCVKZH5,99,1595127666326,"{""rt"": null, ""stimulus"": ""<img src=\""/static/images/icons/Slide19.png\""></img>"", ""key_press"": null, ""test_part"": ""training"", ""next_elem"": ""Slide44"", ""trial_type"": ""html-keyboard-response"", ""trial_index"": 99, ""time_elapsed"": 155578, ""internal_node_id"": ""0.0-7.0-0.0-0.5"", ""uniqueId"": ""A2BV7O07LVX731:36W0OB37HXEI7USAKE6NWZ7QCVKZH5"", ""condition"": 0, ""counterbalance"": 0}"
A2BV7O07LVX731:36W0OB37HXEI7USAKE6NWZ7QCVKZH5,100,1595127667529,"{""rt"": null, ""stimulus"": ""<img src=\""/static/images/icons/Slide44.png\""></img>"", ""key_press"": null, ""test_part"": ""training"", ""next_elem"": ""Slide19"", ""trial_type"": ""html-keyboard-response"", ""trial_index"": 100, ""time_elapsed"": 156781, ""internal_node_id"": ""0.0-7.0-0.0-0.6"", ""uniqueId"": ""A2BV7O07LVX731:36W0OB37HXEI7USAKE6NWZ7QCVKZH5"", ""condition"": 0, ""counterbalance"": 0}"
A2BV7O07LVX731:36W0OB37HXEI7USAKE6NWZ7QCVKZH5,101,1595127668732,"{""rt"": null, ""stimulus"": ""<img src=\""/static/images/icons/Slide19.png\""></img>"", ""key_press"": null, ""test_part"": ""training"", ""next_elem"": ""Slide46"", ""trial_type"": ""html-keyboard-response"", ""trial_index"": 101, ""time_elapsed"": 157984, ""internal_node_id"": ""0.0-7.0-0.0-0.7"", ""uniqueId"": ""A2BV7O07LVX731:36W0OB37HXEI7USAKE6NWZ7QCVKZH5"", ""condition"": 0, ""counterbalance"": 0}"
A2BV7O07LVX731:36W0OB37HXEI7USAKE6NWZ7QCVKZH5,102,1595127669936,"{""rt"": null, ""stimulus"": ""<img src=\""/static/images/icons/Slide46.png\""></img>"", ""key_press"": null, ""test_part"": ""training"", ""next_elem"": ""Slide46"", ""trial_type"": ""html-keyboard-response"", ""trial_index"": 102, ""time_elapsed"": 159187, ""internal_node_id"": ""0.0-7.0-0.0-0.8"", ""uniqueId"": ""A2BV7O07LVX731:36W0OB37HXEI7USAKE6NWZ7QCVKZH5"", ""condition"": 0, ""counterbalance"": 0}"
A2BV7O07LVX731:36W0OB37HXEI7USAKE6NWZ7QCVKZH5,103,1595127671139,"{""rt"": null, ""stimulus"": ""<img src=\""/static/images/icons/Slide46.png\""></img>"", ""key_press"": null, ""test_part"": ""training"", ""next_elem"": ""Slide46"", ""trial_type"": ""html-keyboard-response"", ""trial_index"": 103, ""time_elapsed"": 160391, ""internal_node_id"": ""0.0-7.0-0.0-0.9"", ""uniqueId"": ""A2BV7O07LVX731:36W0OB37HXEI7USAKE6NWZ7QCVKZH5"", ""condition"": 0, ""counterbalance"": 0}"
A2BV7O07LVX731:36W0OB37HXEI7USAKE6NWZ7QCVKZH5,104,1595127672342,"{""rt"": null, ""stimulus"": ""<img src=\""/static/images/icons/Slide46.png\""></img>"", ""key_press"": null, ""test_part"": ""training"", ""next_elem"": ""Slide44"", ""trial_type"": ""html-keyboard-response"", ""trial_index"": 104, ""time_elapsed"": 161594, ""internal_node_id"": ""0.0-7.0-0.0-0.10"", ""uniqueId"": ""A2BV7O07LVX731:36W0OB37HXEI7USAKE6NWZ7QCVKZH5"", ""condition"": 0, ""counterbalance"": 0}"
A2BV7O07LVX731:36W0OB37HXEI7USAKE6NWZ7QCVKZH5,105,1595127673545,"{""rt"": null, ""stimulus"": ""<img src=\""/static/images/icons/Slide44.png\""></img>"", ""key_press"": null, ""test_part"": ""training"", ""next_elem"": ""Slide19"", ""trial_type"": ""html-keyboard-response"", ""trial_index"": 105, ""time_elapsed"": 162797, ""internal_node_id"": ""0.0-7.0-0.0-0.11"", ""uniqueId"": ""A2BV7O07LVX731:36W0OB37HXEI7USAKE6NWZ7QCVKZH5"", ""condition"": 0, ""counterbalance"": 0}"
A2BV7O07LVX731:36W0OB37HXEI7USAKE6NWZ7QCVKZH5,106,1595127674749,"{""rt"": null, ""stimulus"": ""<img src=\""/static/images/icons/Slide19.png\""></img>"", ""key_press"": null, ""test_part"": ""training"", ""next_elem"": ""Slide19"", ""trial_type"": ""html-keyboard-response"", ""trial_index"": 106, ""time_elapsed"": 164001, ""internal_node_id"": ""0.0-7.0-0.0-0.12"", ""uniqueId"": ""A2BV7O07LVX731:36W0OB37HXEI7USAKE6NWZ7QCVKZH5"", ""condition"": 0, ""counterbalance"": 0}"
A2BV7O07LVX731:36W0OB37HXEI7USAKE6NWZ7QCVKZH5,107,1595127675953,"{""rt"": null, ""stimulus"": ""<img src=\""/static/images/icons/Slide19.png\""></img>"", ""key_press"": null, ""test_part"": ""training"", ""next_elem"": ""Slide46"", ""trial_type"": ""html-keyboard-response"", ""trial_index"": 107, ""time_elapsed"": 165205, ""internal_node_id"": ""0.0-7.0-0.0-0.13"", ""uniqueId"": ""A2BV7O07LVX731:36W0OB37HXEI7USAKE6NWZ7QCVKZH5"", ""condition"": 0, ""counterbalance"": 0}"
A2BV7O07LVX731:36W0OB37HXEI7USAKE6NWZ7QCVKZH5,108,1595127677158,"{""rt"": null, ""stimulus"": ""<img src=\""/static/images/icons/Slide46.png\""></img>"", ""key_press"": null, ""test_part"": ""training"", ""next_elem"": ""Slide44"", ""trial_type"": ""html-keyboard-response"", ""trial_index"": 108, ""time_elapsed"": 166409, ""internal_node_id"": ""0.0-7.0-0.0-0.14"", ""uniqueId"": ""A2BV7O07LVX731:36W0OB37HXEI7USAKE6NWZ7QCVKZH5"", ""condition"": 0, ""counterbalance"": 0}"
A2BV7O07LVX731:36W0OB37HXEI7USAKE6NWZ7QCVKZH5,109,1595127678361,"{""rt"": null, ""stimulus"": ""<img src=\""/static/images/icons/Slide44.png\""></img>"", ""key_press"": null, ""test_part"": ""training"", ""next_elem"": ""Slide44"", ""trial_type"": ""html-keyboard-response"", ""trial_index"": 109, ""time_elapsed"": 167613, ""internal_node_id"": ""0.0-7.0-0.0-0.15"", ""uniqueId"": ""A2BV7O07LVX731:36W0OB37HXEI7USAKE6NWZ7QCVKZH5"", ""condition"": 0, ""counterbalance"": 0}"
A2BV7O07LVX731:36W0OB37HXEI7USAKE6NWZ7QCVKZH5,110,1595127679563,"{""rt"": null, ""stimulus"": ""<img src=\""/static/images/icons/Slide44.png\""></img>"", ""key_press"": null, ""test_part"": ""training"", ""next_elem"": ""Slide44"", ""trial_type"": ""html-keyboard-response"", ""trial_index"": 110, ""time_elapsed"": 168815, ""internal_node_id"": ""0.0-7.0-0.0-0.16"", ""uniqueId"": ""A2BV7O07LVX731:36W0OB37HXEI7USAKE6NWZ7QCVKZH5"", ""condition"": 0, ""counterbalance"": 0}"
A2BV7O07LVX731:36W0OB37HXEI7USAKE6NWZ7QCVKZH5,111,1595127680767,"{""rt"": null, ""stimulus"": ""<img src=\""/static/images/icons/Slide44.png\""></img>"", ""key_press"": null, ""test_part"": ""training"", ""next_elem"": ""Slide19"", ""trial_type"": ""html-keyboard-response"", ""trial_index"": 111, ""time_elapsed"": 170019, ""internal_node_id"": ""0.0-7.0-0.0-0.17"", ""uniqueId"": ""A2BV7O07LVX731:36W0OB37HXEI7USAKE6NWZ7QCVKZH5"", ""condition"": 0, ""counterbalance"": 0}"
A2BV7O07LVX731:36W0OB37HXEI7USAKE6NWZ7QCVKZH5,112,1595127681968,"{""rt"": null, ""stimulus"": ""<img src=\""/static/images/icons/Slide19.png\""></img>"", ""key_press"": null, ""test_part"": ""training"", ""next_elem"": ""Slide44"", ""trial_type"": ""html-keyboard-response"", ""trial_index"": 112, ""time_elapsed"": 171220, ""internal_node_id"": ""0.0-7.0-0.0-0.18"", ""uniqueId"": ""A2BV7O07LVX731:36W0OB37HXEI7USAKE6NWZ7QCVKZH5"", ""condition"": 0, ""counterbalance"": 0}"
A2BV7O07LVX731:36W0OB37HXEI7USAKE6NWZ7QCVKZH5,113,1595127683171,"{""rt"": null, ""stimulus"": ""<img src=\""/static/images/icons/Slide44.png\""></img>"", ""key_press"": null, ""test_part"": ""training"", ""next_elem"": ""Slide19"", ""trial_type"": ""html-keyboard-response"", ""trial_index"": 113, ""time_elapsed"": 172423, ""internal_node_id"": ""0.0-7.0-0.0-0.19"", ""uniqueId"": ""A2BV7O07LVX731:36W0OB37HXEI7USAKE6NWZ7QCVKZH5"", ""condition"": 0, ""counterbalance"": 0}"
A2BV7O07LVX731:36W0OB37HXEI7USAKE6NWZ7QCVKZH5,114,1595127684373,"{""rt"": null, ""stimulus"": ""<img src=\""/static/images/icons/Slide19.png\""></img>"", ""key_press"": null, ""test_part"": ""training"", ""next_elem"": ""Slide44"", ""trial_type"": ""html-keyboard-response"", ""trial_index"": 114, ""time_elapsed"": 173625, ""internal_node_id"": ""0.0-7.0-0.0-0.20"", ""uniqueId"": ""A2BV7O07LVX731:36W0OB37HXEI7USAKE6NWZ7QCVKZH5"", ""condition"": 0, ""counterbalance"": 0}"
A2BV7O07LVX731:36W0OB37HXEI7USAKE6NWZ7QCVKZH5,115,1595127685578,"{""rt"": null, ""stimulus"": ""<img src=\""/static/images/icons/Slide44.png\""></img>"", ""key_press"": null, ""test_part"": ""training"", ""next_elem"": ""Slide44"", ""trial_type"": ""html-keyboard-response"", ""trial_index"": 115, ""time_elapsed"": 174830, ""internal_node_id"": ""0.0-7.0-0.0-0.21"", ""uniqueId"": ""A2BV7O07LVX731:36W0OB37HXEI7USAKE6NWZ7QCVKZH5"", ""condition"": 0, ""counterbalance"": 0}"
A2BV7O07LVX731:36W0OB37HXEI7USAKE6NWZ7QCVKZH5,116,1595127686780,"{""rt"": null, ""stimulus"": ""<img src=\""/static/images/icons/Slide44.png\""></img>"", ""key_press"": null, ""test_part"": ""training"", ""next_elem"": ""Slide46"", ""trial_type"": ""html-keyboard-response"", ""trial_index"": 116, ""time_elapsed"": 176032, ""internal_node_id"": ""0.0-7.0-0.0-0.22"", ""uniqueId"": ""A2BV7O07LVX731:36W0OB37HXEI7USAKE6NWZ7QCVKZH5"", ""condition"": 0, ""counterbalance"": 0}"
A2BV7O07LVX731:36W0OB37HXEI7USAKE6NWZ7QCVKZH5,117,1595127687983,"{""rt"": null, ""stimulus"": ""<img src=\""/static/images/icons/Slide46.png\""></img>"", ""key_press"": null, ""test_part"": ""training"", ""next_elem"": ""Slide19"", ""trial_type"": ""html-keyboard-response"", ""trial_index"": 117, ""time_elapsed"": 177235, ""internal_node_id"": ""0.0-7.0-0.0-0.23"", ""uniqueId"": ""A2BV7O07LVX731:36W0OB37HXEI7USAKE6NWZ7QCVKZH5"", ""condition"": 0, ""counterbalance"": 0}"
A2BV7O07LVX731:36W0OB37HXEI7USAKE6NWZ7QCVKZH5,118,1595127689186,"{""rt"": null, ""stimulus"": ""<img src=\""/static/images/icons/Slide19.png\""></img>"", ""key_press"": null, ""test_part"": ""training"", ""next_elem"": ""Slide19"", ""trial_type"": ""html-keyboard-response"", ""trial_index"": 118, ""time_elapsed"": 178438, ""internal_node_id"": ""0.0-7.0-0.0-0.24"", ""uniqueId"": ""A2BV7O07LVX731:36W0OB37HXEI7USAKE6NWZ7QCVKZH5"", ""condition"": 0, ""counterbalance"": 0}"
A2BV7O07LVX731:36W0OB37HXEI7USAKE6NWZ7QCVKZH5,119,1595127690390,"{""rt"": null, ""stimulus"": ""<img src=\""/static/images/icons/Slide19.png\""></img>"", ""key_press"": null, ""test_part"": ""training"", ""next_elem"": ""Slide19"", ""trial_type"": ""html-keyboard-response"", ""trial_index"": 119, ""time_elapsed"": 179641, ""internal_node_id"": ""0.0-7.0-0.0-0.25"", ""uniqueId"": ""A2BV7O07LVX731:36W0OB37HXEI7USAKE6NWZ7QCVKZH5"", ""condition"": 0, ""counterbalance"": 0}"
A2BV7O07LVX731:36W0OB37HXEI7USAKE6NWZ7QCVKZH5,120,1595127691592,"{""rt"": null, ""stimulus"": ""<img src=\""/static/images/icons/Slide19.png\""></img>"", ""key_press"": null, ""test_part"": ""training"", ""next_elem"": ""Slide46"", ""trial_type"": ""html-keyboard-response"", ""trial_index"": 120, ""time_elapsed"": 180844, ""internal_node_id"": ""0.0-7.0-0.0-0.26"", ""uniqueId"": ""A2BV7O07LVX731:36W0OB37HXEI7USAKE6NWZ7QCVKZH5"", ""condition"": 0, ""counterbalance"": 0}"
A2BV7O07LVX731:36W0OB37HXEI7USAKE6NWZ7QCVKZH5,121,1595127692796,"{""rt"": null, ""stimulus"": ""<img src=\""/static/images/icons/Slide46.png\""></img>"", ""key_press"": null, ""test_part"": ""training"", ""next_elem"": ""Slide19"", ""trial_type"": ""html-keyboard-response"", ""trial_index"": 121, ""time_elapsed"": 182047, ""internal_node_id"": ""0.0-7.0-0.0-0.27"", ""uniqueId"": ""A2BV7O07LVX731:36W0OB37HXEI7USAKE6NWZ7QCVKZH5"", ""condition"": 0, ""counterbalance"": 0}"
A2BV7O07LVX731:36W0OB37HXEI7USAKE6NWZ7QCVKZH5,122,1595127693998,"{""rt"": null, ""stimulus"": ""<img src=\""/static/images/icons/Slide19.png\""></img>"", ""key_press"": null, ""test_part"": ""training"", ""next_elem"": ""Slide46"", ""trial_type"": ""html-keyboard-response"", ""trial_index"": 122, ""time_elapsed"": 183250, ""internal_node_id"": ""0.0-7.0-0.0-0.28"", ""uniqueId"": ""A2BV7O07LVX731:36W0OB37HXEI7USAKE6NWZ7QCVKZH5"", ""condition"": 0, ""counterbalance"": 0}"
A2BV7O07LVX731:36W0OB37HXEI7USAKE6NWZ7QCVKZH5,123,1595127697801,"{""rt"": null, ""stimulus"": ""Next sequence coming up.."", ""key_press"": null, ""test_part"": ""between_sequences"", ""trial_type"": ""html-keyboard-response"", ""trial_index"": 123, ""time_elapsed"": 187053, ""internal_node_id"": ""0.0-7.0-1.0"", ""uniqueId"": ""A2BV7O07LVX731:36W0OB37HXEI7USAKE6NWZ7QCVKZH5"", ""condition"": 0, ""counterbalance"": 0}"
A2BV7O07LVX731:36W0OB37HXEI7USAKE6NWZ7QCVKZH5,124,1595127698705,"{""rt"": null, ""stimulus"": ""<img src=\""/static/images/icons/Slide51.png\""></img>"", ""key_press"": null, ""test_part"": ""training"", ""next_elem"": ""Slide59"", ""trial_type"": ""html-keyboard-response"", ""trial_index"": 124, ""time_elapsed"": 187957, ""internal_node_id"": ""0.0-8.0-0.0-0.0"", ""uniqueId"": ""A2BV7O07LVX731:36W0OB37HXEI7USAKE6NWZ7QCVKZH5"", ""condition"": 0, ""counterbalance"": 0}"
A2BV7O07LVX731:36W0OB37HXEI7USAKE6NWZ7QCVKZH5,125,1595127699909,"{""rt"": null, ""stimulus"": ""<img src=\""/static/images/icons/Slide59.png\""></img>"", ""key_press"": null, ""test_part"": ""training"", ""next_elem"": ""Slide11"", ""trial_type"": ""html-keyboard-response"", ""trial_index"": 125, ""time_elapsed"": 189161, ""internal_node_id"": ""0.0-8.0-0.0-0.1"", ""uniqueId"": ""A2BV7O07LVX731:36W0OB37HXEI7USAKE6NWZ7QCVKZH5"", ""condition"": 0, ""counterbalance"": 0}"
A2BV7O07LVX731:36W0OB37HXEI7USAKE6NWZ7QCVKZH5,126,1595127701112,"{""rt"": null, ""stimulus"": ""<img src=\""/static/images/icons/Slide11.png\""></img>"", ""key_press"": null, ""test_part"": ""training"", ""next_elem"": ""Slide59"", ""trial_type"": ""html-keyboard-response"", ""trial_index"": 126, ""time_elapsed"": 190364, ""internal_node_id"": ""0.0-8.0-0.0-0.2"", ""uniqueId"": ""A2BV7O07LVX731:36W0OB37HXEI7USAKE6NWZ7QCVKZH5"", ""condition"": 0, ""counterbalance"": 0}"
A2BV7O07LVX731:36W0OB37HXEI7USAKE6NWZ7QCVKZH5,127,1595127702316,"{""rt"": null, ""stimulus"": ""<img src=\""/static/images/icons/Slide59.png\""></img>"", ""key_press"": null, ""test_part"": ""training"", ""next_elem"": ""Slide11"", ""trial_type"": ""html-keyboard-response"", ""trial_index"": 127, ""time_elapsed"": 191568, ""internal_node_id"": ""0.0-8.0-0.0-0.3"", ""uniqueId"": ""A2BV7O07LVX731:36W0OB37HXEI7USAKE6NWZ7QCVKZH5"", ""condition"": 0, ""counterbalance"": 0}"
A2BV7O07LVX731:36W0OB37HXEI7USAKE6NWZ7QCVKZH5,128,1595127703519,"{""rt"": null, ""stimulus"": ""<img src=\""/static/images/icons/Slide11.png\""></img>"", ""key_press"": null, ""test_part"": ""training"", ""next_elem"": ""Slide51"", ""trial_type"": ""html-keyboard-response"", ""trial_index"": 128, ""time_elapsed"": 192771, ""internal_node_id"": ""0.0-8.0-0.0-0.4"", ""uniqueId"": ""A2BV7O07LVX731:36W0OB37HXEI7USAKE6NWZ7QCVKZH5"", ""condition"": 0, ""counterbalance"": 0}"
A2BV7O07LVX731:36W0OB37HXEI7USAKE6NWZ7QCVKZH5,129,1595127704722,"{""rt"": null, ""stimulus"": ""<img src=\""/static/images/icons/Slide51.png\""></img>"", ""key_press"": null, ""test_part"": ""training"", ""next_elem"": ""Slide59"", ""trial_type"": ""html-keyboard-response"", ""trial_index"": 129, ""time_elapsed"": 193974, ""internal_node_id"": ""0.0-8.0-0.0-0.5"", ""uniqueId"": ""A2BV7O07LVX731:36W0OB37HXEI7USAKE6NWZ7QCVKZH5"", ""condition"": 0, ""counterbalance"": 0}"
A2BV7O07LVX731:36W0OB37HXEI7USAKE6NWZ7QCVKZH5,130,1595127705925,"{""rt"": null, ""stimulus"": ""<img src=\""/static/images/icons/Slide59.png\""></img>"", ""key_press"": null, ""test_part"": ""training"", ""next_elem"": ""Slide51"", ""trial_type"": ""html-keyboard-response"", ""trial_index"": 130, ""time_elapsed"": 195177, ""internal_node_id"": ""0.0-8.0-0.0-0.6"", ""uniqueId"": ""A2BV7O07LVX731:36W0OB37HXEI7USAKE6NWZ7QCVKZH5"", ""condition"": 0, ""counterbalance"": 0}"
A2BV7O07LVX731:36W0OB37HXEI7USAKE6NWZ7QCVKZH5,131,1595127707128,"{""rt"": null, ""stimulus"": ""<img src=\""/static/images/icons/Slide51.png\""></img>"", ""key_press"": null, ""test_part"": ""training"", ""next_elem"": ""Slide11"", ""trial_type"": ""html-keyboard-response"", ""trial_index"": 131, ""time_elapsed"": 196380, ""internal_node_id"": ""0.0-8.0-0.0-0.7"", ""uniqueId"": ""A2BV7O07LVX731:36W0OB37HXEI7USAKE6NWZ7QCVKZH5"", ""condition"": 0, ""counterbalance"": 0}"
A2BV7O07LVX731:36W0OB37HXEI7USAKE6NWZ7QCVKZH5,132,1595127708332,"{""rt"": null, ""stimulus"": ""<img src=\""/static/images/icons/Slide11.png\""></img>"", ""key_press"": null, ""test_part"": ""training"", ""next_elem"": ""Slide11"", ""trial_type"": ""html-keyboard-response"", ""trial_index"": 132, ""time_elapsed"": 197584, ""internal_node_id"": ""0.0-8.0-0.0-0.8"", ""uniqueId"": ""A2BV7O07LVX731:36W0OB37HXEI7USAKE6NWZ7QCVKZH5"", ""condition"": 0, ""counterbalance"": 0}"
A2BV7O07LVX731:36W0OB37HXEI7USAKE6NWZ7QCVKZH5,133,1595127709536,"{""rt"": null, ""stimulus"": ""<img src=\""/static/images/icons/Slide11.png\""></img>"", ""key_press"": null, ""test_part"": ""training"", ""next_elem"": ""Slide11"", ""trial_type"": ""html-keyboard-response"", ""trial_index"": 133, ""time_elapsed"": 198788, ""internal_node_id"": ""0.0-8.0-0.0-0.9"", ""uniqueId"": ""A2BV7O07LVX731:36W0OB37HXEI7USAKE6NWZ7QCVKZH5"", ""condition"": 0, ""counterbalance"": 0}"
A2BV7O07LVX731:36W0OB37HXEI7USAKE6NWZ7QCVKZH5,134,1595127710738,"{""rt"": null, ""stimulus"": ""<img src=\""/static/images/icons/Slide11.png\""></img>"", ""key_press"": null, ""test_part"": ""training"", ""next_elem"": ""Slide59"", ""trial_type"": ""html-keyboard-response"", ""trial_index"": 134, ""time_elapsed"": 199990, ""internal_node_id"": ""0.0-8.0-0.0-0.10"", ""uniqueId"": ""A2BV7O07LVX731:36W0OB37HXEI7USAKE6NWZ7QCVKZH5"", ""condition"": 0, ""counterbalance"": 0}"
A2BV7O07LVX731:36W0OB37HXEI7USAKE6NWZ7QCVKZH5,135,1595127711941,"{""rt"": null, ""stimulus"": ""<img src=\""/static/images/icons/Slide59.png\""></img>"", ""key_press"": null, ""test_part"": ""training"", ""next_elem"": ""Slide51"", ""trial_type"": ""html-keyboard-response"", ""trial_index"": 135, ""time_elapsed"": 201192, ""internal_node_id"": ""0.0-8.0-0.0-0.11"", ""uniqueId"": ""A2BV7O07LVX731:36W0OB37HXEI7USAKE6NWZ7QCVKZH5"", ""condition"": 0, ""counterbalance"": 0}"
A2BV7O07LVX731:36W0OB37HXEI7USAKE6NWZ7QCVKZH5,136,1595127713143,"{""rt"": null, ""stimulus"": ""<img src=\""/static/images/icons/Slide51.png\""></img>"", ""key_press"": null, ""test_part"": ""training"", ""next_elem"": ""Slide51"", ""trial_type"": ""html-keyboard-response"", ""trial_index"": 136, ""time_elapsed"": 202395, ""internal_node_id"": ""0.0-8.0-0.0-0.12"", ""uniqueId"": ""A2BV7O07LVX731:36W0OB37HXEI7USAKE6NWZ7QCVKZH5"", ""condition"": 0, ""counterbalance"": 0}"
A2BV7O07LVX731:36W0OB37HXEI7USAKE6NWZ7QCVKZH5,137,1595127714346,"{""rt"": null, ""stimulus"": ""<img src=\""/static/images/icons/Slide51.png\""></img>"", ""key_press"": null, ""test_part"": ""training"", ""next_elem"": ""Slide11"", ""trial_type"": ""html-keyboard-response"", ""trial_index"": 137, ""time_elapsed"": 203597, ""internal_node_id"": ""0.0-8.0-0.0-0.13"", ""uniqueId"": ""A2BV7O07LVX731:36W0OB37HXEI7USAKE6NWZ7QCVKZH5"", ""condition"": 0, ""counterbalance"": 0}"
A2BV7O07LVX731:36W0OB37HXEI7USAKE6NWZ7QCVKZH5,138,1595127715553,"{""rt"": null, ""stimulus"": ""<img src=\""/static/images/icons/Slide11.png\""></img>"", ""key_press"": null, ""test_part"": ""training"", ""next_elem"": ""Slide59"", ""trial_type"": ""html-keyboard-response"", ""trial_index"": 138, ""time_elapsed"": 204801, ""internal_node_id"": ""0.0-8.0-0.0-0.14"", ""uniqueId"": ""A2BV7O07LVX731:36W0OB37HXEI7USAKE6NWZ7QCVKZH5"", ""condition"": 0, ""counterbalance"": 0}"
A2BV7O07LVX731:36W0OB37HXEI7USAKE6NWZ7QCVKZH5,139,1595127716756,"{""rt"": null, ""stimulus"": ""<img src=\""/static/images/icons/Slide59.png\""></img>"", ""key_press"": null, ""test_part"": ""training"", ""next_elem"": ""Slide59"", ""trial_type"": ""html-keyboard-response"", ""trial_index"": 139, ""time_elapsed"": 206008, ""internal_node_id"": ""0.0-8.0-0.0-0.15"", ""uniqueId"": ""A2BV7O07LVX731:36W0OB37HXEI7USAKE6NWZ7QCVKZH5"", ""condition"": 0, ""counterbalance"": 0}"
A2BV7O07LVX731:36W0OB37HXEI7USAKE6NWZ7QCVKZH5,140,1595127717960,"{""rt"": null, ""stimulus"": ""<img src=\""/static/images/icons/Slide59.png\""></img>"", ""key_press"": null, ""test_part"": ""training"", ""next_elem"": ""Slide59"", ""trial_type"": ""html-keyboard-response"", ""trial_index"": 140, ""time_elapsed"": 207212, ""internal_node_id"": ""0.0-8.0-0.0-0.16"", ""uniqueId"": ""A2BV7O07LVX731:36W0OB37HXEI7USAKE6NWZ7QCVKZH5"", ""condition"": 0, ""counterbalance"": 0}"
A2BV7O07LVX731:36W0OB37HXEI7USAKE6NWZ7QCVKZH5,141,1595127719165,"{""rt"": null, ""stimulus"": ""<img src=\""/static/images/icons/Slide59.png\""></img>"", ""key_press"": null, ""test_part"": ""training"", ""next_elem"": ""Slide51"", ""trial_type"": ""html-keyboard-response"", ""trial_index"": 141, ""time_elapsed"": 208417, ""internal_node_id"": ""0.0-8.0-0.0-0.17"", ""uniqueId"": ""A2BV7O07LVX731:36W0OB37HXEI7USAKE6NWZ7QCVKZH5"", ""condition"": 0, ""counterbalance"": 0}"
A2BV7O07LVX731:36W0OB37HXEI7USAKE6NWZ7QCVKZH5,142,1595127720368,"{""rt"": null, ""stimulus"": ""<img src=\""/static/images/icons/Slide51.png\""></img>"", ""key_press"": null, ""test_part"": ""training"", ""next_elem"": ""Slide59"", ""trial_type"": ""html-keyboard-response"", ""trial_index"": 142, ""time_elapsed"": 209620, ""internal_node_id"": ""0.0-8.0-0.0-0.18"", ""uniqueId"": ""A2BV7O07LVX731:36W0OB37HXEI7USAKE6NWZ7QCVKZH5"", ""condition"": 0, ""counterbalance"": 0}"
A2BV7O07LVX731:36W0OB37HXEI7USAKE6NWZ7QCVKZH5,143,1595127721570,"{""rt"": null, ""stimulus"": ""<img src=\""/static/images/icons/Slide59.png\""></img>"", ""key_press"": null, ""test_part"": ""training"", ""next_elem"": ""Slide51"", ""trial_type"": ""html-keyboard-response"", ""trial_index"": 143, ""time_elapsed"": 210822, ""internal_node_id"": ""0.0-8.0-0.0-0.19"", ""uniqueId"": ""A2BV7O07LVX731:36W0OB37HXEI7USAKE6NWZ7QCVKZH5"", ""condition"": 0, ""counterbalance"": 0}"
A2BV7O07LVX731:36W0OB37HXEI7USAKE6NWZ7QCVKZH5,144,1595127722775,"{""rt"": null, ""stimulus"": ""<img src=\""/static/images/icons/Slide51.png\""></img>"", ""key_press"": null, ""test_part"": ""training"", ""next_elem"": ""Slide59"", ""trial_type"": ""html-keyboard-response"", ""trial_index"": 144, ""time_elapsed"": 212027, ""internal_node_id"": ""0.0-8.0-0.0-0.20"", ""uniqueId"": ""A2BV7O07LVX731:36W0OB37HXEI7USAKE6NWZ7QCVKZH5"", ""condition"": 0, ""counterbalance"": 0}"
A2BV7O07LVX731:36W0OB37HXEI7USAKE6NWZ7QCVKZH5,145,1595127723978,"{""rt"": null, ""stimulus"": ""<img src=\""/static/images/icons/Slide59.png\""></img>"", ""key_press"": null, ""test_part"": ""training"", ""next_elem"": ""Slide59"", ""trial_type"": ""html-keyboard-response"", ""trial_index"": 145, ""time_elapsed"": 213229, ""internal_node_id"": ""0.0-8.0-0.0-0.21"", ""uniqueId"": ""A2BV7O07LVX731:36W0OB37HXEI7USAKE6NWZ7QCVKZH5"", ""condition"": 0, ""counterbalance"": 0}"
A2BV7O07LVX731:36W0OB37HXEI7USAKE6NWZ7QCVKZH5,146,1595127725181,"{""rt"": null, ""stimulus"": ""<img src=\""/static/images/icons/Slide59.png\""></img>"", ""key_press"": null, ""test_part"": ""training"", ""next_elem"": ""Slide11"", ""trial_type"": ""html-keyboard-response"", ""trial_index"": 146, ""time_elapsed"": 214433, ""internal_node_id"": ""0.0-8.0-0.0-0.22"", ""uniqueId"": ""A2BV7O07LVX731:36W0OB37HXEI7USAKE6NWZ7QCVKZH5"", ""condition"": 0, ""counterbalance"": 0}"
A2BV7O07LVX731:36W0OB37HXEI7USAKE6NWZ7QCVKZH5,147,1595127726385,"{""rt"": null, ""stimulus"": ""<img src=\""/static/images/icons/Slide11.png\""></img>"", ""key_press"": null, ""test_part"": ""training"", ""next_elem"": ""Slide51"", ""trial_type"": ""html-keyboard-response"", ""trial_index"": 147, ""time_elapsed"": 215637, ""internal_node_id"": ""0.0-8.0-0.0-0.23"", ""uniqueId"": ""A2BV7O07LVX731:36W0OB37HXEI7USAKE6NWZ7QCVKZH5"", ""condition"": 0, ""counterbalance"": 0}"
A2BV7O07LVX731:36W0OB37HXEI7USAKE6NWZ7QCVKZH5,148,1595127727588,"{""rt"": null, ""stimulus"": ""<img src=\""/static/images/icons/Slide51.png\""></img>"", ""key_press"": null, ""test_part"": ""training"", ""next_elem"": ""Slide51"", ""trial_type"": ""html-keyboard-response"", ""trial_index"": 148, ""time_elapsed"": 216840, ""internal_node_id"": ""0.0-8.0-0.0-0.24"", ""uniqueId"": ""A2BV7O07LVX731:36W0OB37HXEI7USAKE6NWZ7QCVKZH5"", ""condition"": 0, ""counterbalance"": 0}"
A2BV7O07LVX731:36W0OB37HXEI7USAKE6NWZ7QCVKZH5,149,1595127728791,"{""rt"": null, ""stimulus"": ""<img src=\""/static/images/icons/Slide51.png\""></img>"", ""key_press"": null, ""test_part"": ""training"", ""next_elem"": ""Slide51"", ""trial_type"": ""html-keyboard-response"", ""trial_index"": 149, ""time_elapsed"": 218043, ""internal_node_id"": ""0.0-8.0-0.0-0.25"", ""uniqueId"": ""A2BV7O07LVX731:36W0OB37HXEI7USAKE6NWZ7QCVKZH5"", ""condition"": 0, ""counterbalance"": 0}"
A2BV7O07LVX731:36W0OB37HXEI7USAKE6NWZ7QCVKZH5,150,1595127729995,"{""rt"": null, ""stimulus"": ""<img src=\""/static/images/icons/Slide51.png\""></img>"", ""key_press"": null, ""test_part"": ""training"", ""next_elem"": ""Slide11"", ""trial_type"": ""html-keyboard-response"", ""trial_index"": 150, ""time_elapsed"": 219247, ""internal_node_id"": ""0.0-8.0-0.0-0.26"", ""uniqueId"": ""A2BV7O07LVX731:36W0OB37HXEI7USAKE6NWZ7QCVKZH5"", ""condition"": 0, ""counterbalance"": 0}"
A2BV7O07LVX731:36W0OB37HXEI7USAKE6NWZ7QCVKZH5,151,1595127731198,"{""rt"": null, ""stimulus"": ""<img src=\""/static/images/icons/Slide11.png\""></img>"", ""key_press"": null, ""test_part"": ""training"", ""next_elem"": ""Slide51"", ""trial_type"": ""html-keyboard-response"", ""trial_index"": 151, ""time_elapsed"": 220450, ""internal_node_id"": ""0.0-8.0-0.0-0.27"", ""uniqueId"": ""A2BV7O07LVX731:36W0OB37HXEI7USAKE6NWZ7QCVKZH5"", ""condition"": 0, ""counterbalance"": 0}"
A2BV7O07LVX731:36W0OB37HXEI7USAKE6NWZ7QCVKZH5,152,1595127732400,"{""rt"": null, ""stimulus"": ""<img src=\""/static/images/icons/Slide51.png\""></img>"", ""key_press"": null, ""test_part"": ""training"", ""next_elem"": ""Slide11"", ""trial_type"": ""html-keyboard-response"", ""trial_index"": 152, ""time_elapsed"": 221652, ""internal_node_id"": ""0.0-8.0-0.0-0.28"", ""uniqueId"": ""A2BV7O07LVX731:36W0OB37HXEI7USAKE6NWZ7QCVKZH5"", ""condition"": 0, ""counterbalance"": 0}"
A2BV7O07LVX731:36W0OB37HXEI7USAKE6NWZ7QCVKZH5,153,1595127736204,"{""rt"": null, ""stimulus"": ""Next sequence coming up.."", ""key_press"": null, ""test_part"": ""between_sequences"", ""trial_type"": ""html-keyboard-response"", ""trial_index"": 153, ""time_elapsed"": 225455, ""internal_node_id"": ""0.0-8.0-1.0"", ""uniqueId"": ""A2BV7O07LVX731:36W0OB37HXEI7USAKE6NWZ7QCVKZH5"", ""condition"": 0, ""counterbalance"": 0}"
A2BV7O07LVX731:36W0OB37HXEI7USAKE6NWZ7QCVKZH5,154,1595127737106,"{""rt"": null, ""stimulus"": ""<img src=\""/static/images/icons/Slide31.png\""></img>"", ""key_press"": null, ""test_part"": ""training"", ""next_elem"": ""Slide34"", ""trial_type"": ""html-keyboard-response"", ""trial_index"": 154, ""time_elapsed"": 226358, ""internal_node_id"": ""0.0-9.0-0.0-0.0"", ""uniqueId"": ""A2BV7O07LVX731:36W0OB37HXEI7USAKE6NWZ7QCVKZH5"", ""condition"": 0, ""counterbalance"": 0}"
A2BV7O07LVX731:36W0OB37HXEI7USAKE6NWZ7QCVKZH5,155,1595127738311,"{""rt"": null, ""stimulus"": ""<img src=\""/static/images/icons/Slide34.png\""></img>"", ""key_press"": null, ""test_part"": ""training"", ""next_elem"": ""Slide29"", ""trial_type"": ""html-keyboard-response"", ""trial_index"": 155, ""time_elapsed"": 227563, ""internal_node_id"": ""0.0-9.0-0.0-0.1"", ""uniqueId"": ""A2BV7O07LVX731:36W0OB37HXEI7USAKE6NWZ7QCVKZH5"", ""condition"": 0, ""counterbalance"": 0}"
A2BV7O07LVX731:36W0OB37HXEI7USAKE6NWZ7QCVKZH5,156,1595127739515,"{""rt"": null, ""stimulus"": ""<img src=\""/static/images/icons/Slide29.png\""></img>"", ""key_press"": null, ""test_part"": ""training"", ""next_elem"": ""Slide34"", ""trial_type"": ""html-keyboard-response"", ""trial_index"": 156, ""time_elapsed"": 228767, ""internal_node_id"": ""0.0-9.0-0.0-0.2"", ""uniqueId"": ""A2BV7O07LVX731:36W0OB37HXEI7USAKE6NWZ7QCVKZH5"", ""condition"": 0, ""counterbalance"": 0}"
A2BV7O07LVX731:36W0OB37HXEI7USAKE6NWZ7QCVKZH5,157,1595127740719,"{""rt"": null, ""stimulus"": ""<img src=\""/static/images/icons/Slide34.png\""></img>"", ""key_press"": null, ""test_part"": ""training"", ""next_elem"": ""Slide29"", ""trial_type"": ""html-keyboard-response"", ""trial_index"": 157, ""time_elapsed"": 229971, ""internal_node_id"": ""0.0-9.0-0.0-0.3"", ""uniqueId"": ""A2BV7O07LVX731:36W0OB37HXEI7USAKE6NWZ7QCVKZH5"", ""condition"": 0, ""counterbalance"": 0}"
A2BV7O07LVX731:36W0OB37HXEI7USAKE6NWZ7QCVKZH5,158,1595127741923,"{""rt"": null, ""stimulus"": ""<img src=\""/static/images/icons/Slide29.png\""></img>"", ""key_press"": null, ""test_part"": ""training"", ""next_elem"": ""Slide31"", ""trial_type"": ""html-keyboard-response"", ""trial_index"": 158, ""time_elapsed"": 231175, ""internal_node_id"": ""0.0-9.0-0.0-0.4"", ""uniqueId"": ""A2BV7O07LVX731:36W0OB37HXEI7USAKE6NWZ7QCVKZH5"", ""condition"": 0, ""counterbalance"": 0}"
A2BV7O07LVX731:36W0OB37HXEI7USAKE6NWZ7QCVKZH5,159,1595127743128,"{""rt"": null, ""stimulus"": ""<img src=\""/static/images/icons/Slide31.png\""></img>"", ""key_press"": null, ""test_part"": ""training"", ""next_elem"": ""Slide34"", ""trial_type"": ""html-keyboard-response"", ""trial_index"": 159, ""time_elapsed"": 232379, ""internal_node_id"": ""0.0-9.0-0.0-0.5"", ""uniqueId"": ""A2BV7O07LVX731:36W0OB37HXEI7USAKE6NWZ7QCVKZH5"", ""condition"": 0, ""counterbalance"": 0}"
A2BV7O07LVX731:36W0OB37HXEI7USAKE6NWZ7QCVKZH5,160,1595127744333,"{""rt"": null, ""stimulus"": ""<img src=\""/static/images/icons/Slide34.png\""></img>"", ""key_press"": null, ""test_part"": ""training"", ""next_elem"": ""Slide31"", ""trial_type"": ""html-keyboard-response"", ""trial_index"": 160, ""time_elapsed"": 233584, ""internal_node_id"": ""0.0-9.0-0.0-0.6"", ""uniqueId"": ""A2BV7O07LVX731:36W0OB37HXEI7USAKE6NWZ7QCVKZH5"", ""condition"": 0, ""counterbalance"": 0}"
A2BV7O07LVX731:36W0OB37HXEI7USAKE6NWZ7QCVKZH5,161,1595127745537,"{""rt"": null, ""stimulus"": ""<img src=\""/static/images/icons/Slide31.png\""></img>"", ""key_press"": null, ""test_part"": ""training"", ""next_elem"": ""Slide29"", ""trial_type"": ""html-keyboard-response"", ""trial_index"": 161, ""time_elapsed"": 234788, ""internal_node_id"": ""0.0-9.0-0.0-0.7"", ""uniqueId"": ""A2BV7O07LVX731:36W0OB37HXEI7USAKE6NWZ7QCVKZH5"", ""condition"": 0, ""counterbalance"": 0}"
A2BV7O07LVX731:36W0OB37HXEI7USAKE6NWZ7QCVKZH5,162,1595127746741,"{""rt"": null, ""stimulus"": ""<img src=\""/static/images/icons/Slide29.png\""></img>"", ""key_press"": null, ""test_part"": ""training"", ""next_elem"": ""Slide29"", ""trial_type"": ""html-keyboard-response"", ""trial_index"": 162, ""time_elapsed"": 235992, ""internal_node_id"": ""0.0-9.0-0.0-0.8"", ""uniqueId"": ""A2BV7O07LVX731:36W0OB37HXEI7USAKE6NWZ7QCVKZH5"", ""condition"": 0, ""counterbalance"": 0}"
A2BV7O07LVX731:36W0OB37HXEI7USAKE6NWZ7QCVKZH5,163,1595127747945,"{""rt"": null, ""stimulus"": ""<img src=\""/static/images/icons/Slide29.png\""></img>"", ""key_press"": null, ""test_part"": ""training"", ""next_elem"": ""Slide29"", ""trial_type"": ""html-keyboard-response"", ""trial_index"": 163, ""time_elapsed"": 237197, ""internal_node_id"": ""0.0-9.0-0.0-0.9"", ""uniqueId"": ""A2BV7O07LVX731:36W0OB37HXEI7USAKE6NWZ7QCVKZH5"", ""condition"": 0, ""counterbalance"": 0}"
A2BV7O07LVX731:36W0OB37HXEI7USAKE6NWZ7QCVKZH5,164,1595127749148,"{""rt"": null, ""stimulus"": ""<img src=\""/static/images/icons/Slide29.png\""></img>"", ""key_press"": null, ""test_part"": ""training"", ""next_elem"": ""Slide34"", ""trial_type"": ""html-keyboard-response"", ""trial_index"": 164, ""time_elapsed"": 238400, ""internal_node_id"": ""0.0-9.0-0.0-0.10"", ""uniqueId"": ""A2BV7O07LVX731:36W0OB37HXEI7USAKE6NWZ7QCVKZH5"", ""condition"": 0, ""counterbalance"": 0}"
A2BV7O07LVX731:36W0OB37HXEI7USAKE6NWZ7QCVKZH5,165,1595127750350,"{""rt"": null, ""stimulus"": ""<img src=\""/static/images/icons/Slide34.png\""></img>"", ""key_press"": null, ""test_part"": ""training"", ""next_elem"": ""Slide31"", ""trial_type"": ""html-keyboard-response"", ""trial_index"": 165, ""time_elapsed"": 239602, ""internal_node_id"": ""0.0-9.0-0.0-0.11"", ""uniqueId"": ""A2BV7O07LVX731:36W0OB37HXEI7USAKE6NWZ7QCVKZH5"", ""condition"": 0, ""counterbalance"": 0}"
A2BV7O07LVX731:36W0OB37HXEI7USAKE6NWZ7QCVKZH5,166,1595127751554,"{""rt"": null, ""stimulus"": ""<img src=\""/static/images/icons/Slide31.png\""></img>"", ""key_press"": null, ""test_part"": ""training"", ""next_elem"": ""Slide31"", ""trial_type"": ""html-keyboard-response"", ""trial_index"": 166, ""time_elapsed"": 240806, ""internal_node_id"": ""0.0-9.0-0.0-0.12"", ""uniqueId"": ""A2BV7O07LVX731:36W0OB37HXEI7USAKE6NWZ7QCVKZH5"", ""condition"": 0, ""counterbalance"": 0}"
A2BV7O07LVX731:36W0OB37HXEI7USAKE6NWZ7QCVKZH5,167,1595127752757,"{""rt"": null, ""stimulus"": ""<img src=\""/static/images/icons/Slide31.png\""></img>"", ""key_press"": null, ""test_part"": ""training"", ""next_elem"": ""Slide29"", ""trial_type"": ""html-keyboard-response"", ""trial_index"": 167, ""time_elapsed"": 242009, ""internal_node_id"": ""0.0-9.0-0.0-0.13"", ""uniqueId"": ""A2BV7O07LVX731:36W0OB37HXEI7USAKE6NWZ7QCVKZH5"", ""condition"": 0, ""counterbalance"": 0}"
A2BV7O07LVX731:36W0OB37HXEI7USAKE6NWZ7QCVKZH5,168,1595127753961,"{""rt"": null, ""stimulus"": ""<img src=\""/static/images/icons/Slide29.png\""></img>"", ""key_press"": null, ""test_part"": ""training"", ""next_elem"": ""Slide34"", ""trial_type"": ""html-keyboard-response"", ""trial_index"": 168, ""time_elapsed"": 243213, ""internal_node_id"": ""0.0-9.0-0.0-0.14"", ""uniqueId"": ""A2BV7O07LVX731:36W0OB37HXEI7USAKE6NWZ7QCVKZH5"", ""condition"": 0, ""counterbalance"": 0}"
A2BV7O07LVX731:36W0OB37HXEI7USAKE6NWZ7QCVKZH5,169,1595127755165,"{""rt"": null, ""stimulus"": ""<img src=\""/static/images/icons/Slide34.png\""></img>"", ""key_press"": null, ""test_part"": ""training"", ""next_elem"": ""Slide34"", ""trial_type"": ""html-keyboard-response"", ""trial_index"": 169, ""time_elapsed"": 244417, ""internal_node_id"": ""0.0-9.0-0.0-0.15"", ""uniqueId"": ""A2BV7O07LVX731:36W0OB37HXEI7USAKE6NWZ7QCVKZH5"", ""condition"": 0, ""counterbalance"": 0}"
A2BV7O07LVX731:36W0OB37HXEI7USAKE6NWZ7QCVKZH5,170,1595127756368,"{""rt"": null, ""stimulus"": ""<img src=\""/static/images/icons/Slide34.png\""></img>"", ""key_press"": null, ""test_part"": ""training"", ""next_elem"": ""Slide34"", ""trial_type"": ""html-keyboard-response"", ""trial_index"": 170, ""time_elapsed"": 245620, ""internal_node_id"": ""0.0-9.0-0.0-0.16"", ""uniqueId"": ""A2BV7O07LVX731:36W0OB37HXEI7USAKE6NWZ7QCVKZH5"", ""condition"": 0, ""counterbalance"": 0}"
A2BV7O07LVX731:36W0OB37HXEI7USAKE6NWZ7QCVKZH5,171,1595127757572,"{""rt"": null, ""stimulus"": ""<img src=\""/static/images/icons/Slide34.png\""></img>"", ""key_press"": null, ""test_part"": ""training"", ""next_elem"": ""Slide31"", ""trial_type"": ""html-keyboard-response"", ""trial_index"": 171, ""time_elapsed"": 246824, ""internal_node_id"": ""0.0-9.0-0.0-0.17"", ""uniqueId"": ""A2BV7O07LVX731:36W0OB37HXEI7USAKE6NWZ7QCVKZH5"", ""condition"": 0, ""counterbalance"": 0}"
A2BV7O07LVX731:36W0OB37HXEI7USAKE6NWZ7QCVKZH5,172,1595127758774,"{""rt"": null, ""stimulus"": ""<img src=\""/static/images/icons/Slide31.png\""></img>"", ""key_press"": null, ""test_part"": ""training"", ""next_elem"": ""Slide34"", ""trial_type"": ""html-keyboard-response"", ""trial_index"": 172, ""time_elapsed"": 248026, ""internal_node_id"": ""0.0-9.0-0.0-0.18"", ""uniqueId"": ""A2BV7O07LVX731:36W0OB37HXEI7USAKE6NWZ7QCVKZH5"", ""condition"": 0, ""counterbalance"": 0}"
A2BV7O07LVX731:36W0OB37HXEI7USAKE6NWZ7QCVKZH5,173,1595127759978,"{""rt"": null, ""stimulus"": ""<img src=\""/static/images/icons/Slide34.png\""></img>"", ""key_press"": null, ""test_part"": ""training"", ""next_elem"": ""Slide31"", ""trial_type"": ""html-keyboard-response"", ""trial_index"": 173, ""time_elapsed"": 249230, ""internal_node_id"": ""0.0-9.0-0.0-0.19"", ""uniqueId"": ""A2BV7O07LVX731:36W0OB37HXEI7USAKE6NWZ7QCVKZH5"", ""condition"": 0, ""counterbalance"": 0}"
A2BV7O07LVX731:36W0OB37HXEI7USAKE6NWZ7QCVKZH5,174,1595127761180,"{""rt"": null, ""stimulus"": ""<img src=\""/static/images/icons/Slide31.png\""></img>"", ""key_press"": null, ""test_part"": ""training"", ""next_elem"": ""Slide34"", ""trial_type"": ""html-keyboard-response"", ""trial_index"": 174, ""time_elapsed"": 250432, ""internal_node_id"": ""0.0-9.0-0.0-0.20"", ""uniqueId"": ""A2BV7O07LVX731:36W0OB37HXEI7USAKE6NWZ7QCVKZH5"", ""condition"": 0, ""counterbalance"": 0}"
A2BV7O07LVX731:36W0OB37HXEI7USAKE6NWZ7QCVKZH5,175,1595127762382,"{""rt"": null, ""stimulus"": ""<img src=\""/static/images/icons/Slide34.png\""></img>"", ""key_press"": null, ""test_part"": ""training"", ""next_elem"": ""Slide34"", ""trial_type"": ""html-keyboard-response"", ""trial_index"": 175, ""time_elapsed"": 251634, ""internal_node_id"": ""0.0-9.0-0.0-0.21"", ""uniqueId"": ""A2BV7O07LVX731:36W0OB37HXEI7USAKE6NWZ7QCVKZH5"", ""condition"": 0, ""counterbalance"": 0}"
A2BV7O07LVX731:36W0OB37HXEI7USAKE6NWZ7QCVKZH5,176,1595127763586,"{""rt"": null, ""stimulus"": ""<img src=\""/static/images/icons/Slide34.png\""></img>"", ""key_press"": null, ""test_part"": ""training"", ""next_elem"": ""Slide29"", ""trial_type"": ""html-keyboard-response"", ""trial_index"": 176, ""time_elapsed"": 252838, ""internal_node_id"": ""0.0-9.0-0.0-0.22"", ""uniqueId"": ""A2BV7O07LVX731:36W0OB37HXEI7USAKE6NWZ7QCVKZH5"", ""condition"": 0, ""counterbalance"": 0}"
A2BV7O07LVX731:36W0OB37HXEI7USAKE6NWZ7QCVKZH5,177,1595127764790,"{""rt"": null, ""stimulus"": ""<img src=\""/static/images/icons/Slide29.png\""></img>"", ""key_press"": null, ""test_part"": ""training"", ""next_elem"": ""Slide31"", ""trial_type"": ""html-keyboard-response"", ""trial_index"": 177, ""time_elapsed"": 254042, ""internal_node_id"": ""0.0-9.0-0.0-0.23"", ""uniqueId"": ""A2BV7O07LVX731:36W0OB37HXEI7USAKE6NWZ7QCVKZH5"", ""condition"": 0, ""counterbalance"": 0}"
A2BV7O07LVX731:36W0OB37HXEI7USAKE6NWZ7QCVKZH5,178,1595127765993,"{""rt"": null, ""stimulus"": ""<img src=\""/static/images/icons/Slide31.png\""></img>"", ""key_press"": null, ""test_part"": ""training"", ""next_elem"": ""Slide31"", ""trial_type"": ""html-keyboard-response"", ""trial_index"": 178, ""time_elapsed"": 255245, ""internal_node_id"": ""0.0-9.0-0.0-0.24"", ""uniqueId"": ""A2BV7O07LVX731:36W0OB37HXEI7USAKE6NWZ7QCVKZH5"", ""condition"": 0, ""counterbalance"": 0}"
A2BV7O07LVX731:36W0OB37HXEI7USAKE6NWZ7QCVKZH5,179,1595127767197,"{""rt"": null, ""stimulus"": ""<img src=\""/static/images/icons/Slide31.png\""></img>"", ""key_press"": null, ""test_part"": ""training"", ""next_elem"": ""Slide31"", ""trial_type"": ""html-keyboard-response"", ""trial_index"": 179, ""time_elapsed"": 256449, ""internal_node_id"": ""0.0-9.0-0.0-0.25"", ""uniqueId"": ""A2BV7O07LVX731:36W0OB37HXEI7USAKE6NWZ7QCVKZH5"", ""condition"": 0, ""counterbalance"": 0}"
A2BV7O07LVX731:36W0OB37HXEI7USAKE6NWZ7QCVKZH5,180,1595127768399,"{""rt"": null, ""stimulus"": ""<img src=\""/static/images/icons/Slide31.png\""></img>"", ""key_press"": null, ""test_part"": ""training"", ""next_elem"": ""Slide29"", ""trial_type"": ""html-keyboard-response"", ""trial_index"": 180, ""time_elapsed"": 257651, ""internal_node_id"": ""0.0-9.0-0.0-0.26"", ""uniqueId"": ""A2BV7O07LVX731:36W0OB37HXEI7USAKE6NWZ7QCVKZH5"", ""condition"": 0, ""counterbalance"": 0}"
A2BV7O07LVX731:36W0OB37HXEI7USAKE6NWZ7QCVKZH5,181,1595127769603,"{""rt"": null, ""stimulus"": ""<img src=\""/static/images/icons/Slide29.png\""></img>"", ""key_press"": null, ""test_part"": ""training"", ""next_elem"": ""Slide31"", ""trial_type"": ""html-keyboard-response"", ""trial_index"": 181, ""time_elapsed"": 258855, ""internal_node_id"": ""0.0-9.0-0.0-0.27"", ""uniqueId"": ""A2BV7O07LVX731:36W0OB37HXEI7USAKE6NWZ7QCVKZH5"", ""condition"": 0, ""counterbalance"": 0}"
A2BV7O07LVX731:36W0OB37HXEI7USAKE6NWZ7QCVKZH5,182,1595127770807,"{""rt"": null, ""stimulus"": ""<img src=\""/static/images/icons/Slide31.png\""></img>"", ""key_press"": null, ""test_part"": ""training"", ""next_elem"": ""Slide29"", ""trial_type"": ""html-keyboard-response"", ""trial_index"": 182, ""time_elapsed"": 260059, ""internal_node_id"": ""0.0-9.0-0.0-0.28"", ""uniqueId"": ""A2BV7O07LVX731:36W0OB37HXEI7USAKE6NWZ7QCVKZH5"", ""condition"": 0, ""counterbalance"": 0}"
A2BV7O07LVX731:36W0OB37HXEI7USAKE6NWZ7QCVKZH5,183,1595127774612,"{""rt"": null, ""stimulus"": ""Next sequence coming up.."", ""key_press"": null, ""test_part"": ""between_sequences"", ""trial_type"": ""html-keyboard-response"", ""trial_index"": 183, ""time_elapsed"": 263864, ""internal_node_id"": ""0.0-9.0-1.0"", ""uniqueId"": ""A2BV7O07LVX731:36W0OB37HXEI7USAKE6NWZ7QCVKZH5"", ""condition"": 0, ""counterbalance"": 0}"
A2BV7O07LVX731:36W0OB37HXEI7USAKE6NWZ7QCVKZH5,184,1595127775517,"{""rt"": null, ""stimulus"": ""<img src=\""/static/images/icons/Slide4.png\""></img>"", ""key_press"": null, ""test_part"": ""training"", ""next_elem"": ""Slide9"", ""trial_type"": ""html-keyboard-response"", ""trial_index"": 184, ""time_elapsed"": 264769, ""internal_node_id"": ""0.0-10.0-0.0-0.0"", ""uniqueId"": ""A2BV7O07LVX731:36W0OB37HXEI7USAKE6NWZ7QCVKZH5"", ""condition"": 0, ""counterbalance"": 0}"
A2BV7O07LVX731:36W0OB37HXEI7USAKE6NWZ7QCVKZH5,185,1595127776720,"{""rt"": null, ""stimulus"": ""<img src=\""/static/images/icons/Slide9.png\""></img>"", ""key_press"": null, ""test_part"": ""training"", ""next_elem"": ""Slide49"", ""trial_type"": ""html-keyboard-response"", ""trial_index"": 185, ""time_elapsed"": 265972, ""internal_node_id"": ""0.0-10.0-0.0-0.1"", ""uniqueId"": ""A2BV7O07LVX731:36W0OB37HXEI7USAKE6NWZ7QCVKZH5"", ""condition"": 0, ""counterbalance"": 0}"
A2BV7O07LVX731:36W0OB37HXEI7USAKE6NWZ7QCVKZH5,186,1595127777924,"{""rt"": null, ""stimulus"": ""<img src=\""/static/images/icons/Slide49.png\""></img>"", ""key_press"": null, ""test_part"": ""training"", ""next_elem"": ""Slide9"", ""trial_type"": ""html-keyboard-response"", ""trial_index"": 186, ""time_elapsed"": 267175, ""internal_node_id"": ""0.0-10.0-0.0-0.2"", ""uniqueId"": ""A2BV7O07LVX731:36W0OB37HXEI7USAKE6NWZ7QCVKZH5"", ""condition"": 0, ""counterbalance"": 0}"
A2BV7O07LVX731:36W0OB37HXEI7USAKE6NWZ7QCVKZH5,187,1595127779127,"{""rt"": null, ""stimulus"": ""<img src=\""/static/images/icons/Slide9.png\""></img>"", ""key_press"": null, ""test_part"": ""training"", ""next_elem"": ""Slide49"", ""trial_type"": ""html-keyboard-response"", ""trial_index"": 187, ""time_elapsed"": 268379, ""internal_node_id"": ""0.0-10.0-0.0-0.3"", ""uniqueId"": ""A2BV7O07LVX731:36W0OB37HXEI7USAKE6NWZ7QCVKZH5"", ""condition"": 0, ""counterbalance"": 0}"
A2BV7O07LVX731:36W0OB37HXEI7USAKE6NWZ7QCVKZH5,188,1595127780330,"{""rt"": null, ""stimulus"": ""<img src=\""/static/images/icons/Slide49.png\""></img>"", ""key_press"": null, ""test_part"": ""training"", ""next_elem"": ""Slide4"", ""trial_type"": ""html-keyboard-response"", ""trial_index"": 188, ""time_elapsed"": 269582, ""internal_node_id"": ""0.0-10.0-0.0-0.4"", ""uniqueId"": ""A2BV7O07LVX731:36W0OB37HXEI7USAKE6NWZ7QCVKZH5"", ""condition"": 0, ""counterbalance"": 0}"
A2BV7O07LVX731:36W0OB37HXEI7USAKE6NWZ7QCVKZH5,189,1595127781533,"{""rt"": null, ""stimulus"": ""<img src=\""/static/images/icons/Slide4.png\""></img>"", ""key_press"": null, ""test_part"": ""training"", ""next_elem"": ""Slide9"", ""trial_type"": ""html-keyboard-response"", ""trial_index"": 189, ""time_elapsed"": 270785, ""internal_node_id"": ""0.0-10.0-0.0-0.5"", ""uniqueId"": ""A2BV7O07LVX731:36W0OB37HXEI7USAKE6NWZ7QCVKZH5"", ""condition"": 0, ""counterbalance"": 0}"
A2BV7O07LVX731:36W0OB37HXEI7USAKE6NWZ7QCVKZH5,190,1595127782736,"{""rt"": null, ""stimulus"": ""<img src=\""/static/images/icons/Slide9.png\""></img>"", ""key_press"": null, ""test_part"": ""training"", ""next_elem"": ""Slide4"", ""trial_type"": ""html-keyboard-response"", ""trial_index"": 190, ""time_elapsed"": 271988, ""internal_node_id"": ""0.0-10.0-0.0-0.6"", ""uniqueId"": ""A2BV7O07LVX731:36W0OB37HXEI7USAKE6NWZ7QCVKZH5"", ""condition"": 0, ""counterbalance"": 0}"
A2BV7O07LVX731:36W0OB37HXEI7USAKE6NWZ7QCVKZH5,191,1595127783939,"{""rt"": null, ""stimulus"": ""<img src=\""/static/images/icons/Slide4.png\""></img>"", ""key_press"": null, ""test_part"": ""training"", ""next_elem"": ""Slide49"", ""trial_type"": ""html-keyboard-response"", ""trial_index"": 191, ""time_elapsed"": 273191, ""internal_node_id"": ""0.0-10.0-0.0-0.7"", ""uniqueId"": ""A2BV7O07LVX731:36W0OB37HXEI7USAKE6NWZ7QCVKZH5"", ""condition"": 0, ""counterbalance"": 0}"
A2BV7O07LVX731:36W0OB37HXEI7USAKE6NWZ7QCVKZH5,192,1595127785142,"{""rt"": null, ""stimulus"": ""<img src=\""/static/images/icons/Slide49.png\""></img>"", ""key_press"": null, ""test_part"": ""training"", ""next_elem"": ""Slide49"", ""trial_type"": ""html-keyboard-response"", ""trial_index"": 192, ""time_elapsed"": 274394, ""internal_node_id"": ""0.0-10.0-0.0-0.8"", ""uniqueId"": ""A2BV7O07LVX731:36W0OB37HXEI7USAKE6NWZ7QCVKZH5"", ""condition"": 0, ""counterbalance"": 0}"
A2BV7O07LVX731:36W0OB37HXEI7USAKE6NWZ7QCVKZH5,193,1595127786346,"{""rt"": null, ""stimulus"": ""<img src=\""/static/images/icons/Slide49.png\""></img>"", ""key_press"": null, ""test_part"": ""training"", ""next_elem"": ""Slide49"", ""trial_type"": ""html-keyboard-response"", ""trial_index"": 193, ""time_elapsed"": 275598, ""internal_node_id"": ""0.0-10.0-0.0-0.9"", ""uniqueId"": ""A2BV7O07LVX731:36W0OB37HXEI7USAKE6NWZ7QCVKZH5"", ""condition"": 0, ""counterbalance"": 0}"
A2BV7O07LVX731:36W0OB37HXEI7USAKE6NWZ7QCVKZH5,194,1595127787550,"{""rt"": null, ""stimulus"": ""<img src=\""/static/images/icons/Slide49.png\""></img>"", ""key_press"": null, ""test_part"": ""training"", ""next_elem"": ""Slide9"", ""trial_type"": ""html-keyboard-response"", ""trial_index"": 194, ""time_elapsed"": 276802, ""internal_node_id"": ""0.0-10.0-0.0-0.10"", ""uniqueId"": ""A2BV7O07LVX731:36W0OB37HXEI7USAKE6NWZ7QCVKZH5"", ""condition"": 0, ""counterbalance"": 0}"
A2BV7O07LVX731:36W0OB37HXEI7USAKE6NWZ7QCVKZH5,195,1595127788754,"{""rt"": null, ""stimulus"": ""<img src=\""/static/images/icons/Slide9.png\""></img>"", ""key_press"": null, ""test_part"": ""training"", ""next_elem"": ""Slide4"", ""trial_type"": ""html-keyboard-response"", ""trial_index"": 195, ""time_elapsed"": 278005, ""internal_node_id"": ""0.0-10.0-0.0-0.11"", ""uniqueId"": ""A2BV7O07LVX731:36W0OB37HXEI7USAKE6NWZ7QCVKZH5"", ""condition"": 0, ""counterbalance"": 0}"
A2BV7O07LVX731:36W0OB37HXEI7USAKE6NWZ7QCVKZH5,196,1595127789958,"{""rt"": null, ""stimulus"": ""<img src=\""/static/images/icons/Slide4.png\""></img>"", ""key_press"": null, ""test_part"": ""training"", ""next_elem"": ""Slide4"", ""trial_type"": ""html-keyboard-response"", ""trial_index"": 196, ""time_elapsed"": 279210, ""internal_node_id"": ""0.0-10.0-0.0-0.12"", ""uniqueId"": ""A2BV7O07LVX731:36W0OB37HXEI7USAKE6NWZ7QCVKZH5"", ""condition"": 0, ""counterbalance"": 0}"
A2BV7O07LVX731:36W0OB37HXEI7USAKE6NWZ7QCVKZH5,197,1595127791162,"{""rt"": null, ""stimulus"": ""<img src=\""/static/images/icons/Slide4.png\""></img>"", ""key_press"": null, ""test_part"": ""training"", ""next_elem"": ""Slide49"", ""trial_type"": ""html-keyboard-response"", ""trial_index"": 197, ""time_elapsed"": 280413, ""internal_node_id"": ""0.0-10.0-0.0-0.13"", ""uniqueId"": ""A2BV7O07LVX731:36W0OB37HXEI7USAKE6NWZ7QCVKZH5"", ""condition"": 0, ""counterbalance"": 0}"
A2BV7O07LVX731:36W0OB37HXEI7USAKE6NWZ7QCVKZH5,198,1595127792366,"{""rt"": null, ""stimulus"": ""<img src=\""/static/images/icons/Slide49.png\""></img>"", ""key_press"": null, ""test_part"": ""training"", ""next_elem"": ""Slide9"", ""trial_type"": ""html-keyboard-response"", ""trial_index"": 198, ""time_elapsed"": 281618, ""internal_node_id"": ""0.0-10.0-0.0-0.14"", ""uniqueId"": ""A2BV7O07LVX731:36W0OB37HXEI7USAKE6NWZ7QCVKZH5"", ""condition"": 0, ""counterbalance"": 0}"
A2BV7O07LVX731:36W0OB37HXEI7USAKE6NWZ7QCVKZH5,199,1595127793569,"{""rt"": null, ""stimulus"": ""<img src=\""/static/images/icons/Slide9.png\""></img>"", ""key_press"": null, ""test_part"": ""training"", ""next_elem"": ""Slide9"", ""trial_type"": ""html-keyboard-response"", ""trial_index"": 199, ""time_elapsed"": 282821, ""internal_node_id"": ""0.0-10.0-0.0-0.15"", ""uniqueId"": ""A2BV7O07LVX731:36W0OB37HXEI7USAKE6NWZ7QCVKZH5"", ""condition"": 0, ""counterbalance"": 0}"
A2BV7O07LVX731:36W0OB37HXEI7USAKE6NWZ7QCVKZH5,200,1595127794771,"{""rt"": null, ""stimulus"": ""<img src=\""/static/images/icons/Slide9.png\""></img>"", ""key_press"": null, ""test_part"": ""training"", ""next_elem"": ""Slide9"", ""trial_type"": ""html-keyboard-response"", ""trial_index"": 200, ""time_elapsed"": 284023, ""internal_node_id"": ""0.0-10.0-0.0-0.16"", ""uniqueId"": ""A2BV7O07LVX731:36W0OB37HXEI7USAKE6NWZ7QCVKZH5"", ""condition"": 0, ""counterbalance"": 0}"
A2BV7O07LVX731:36W0OB37HXEI7USAKE6NWZ7QCVKZH5,201,1595127795975,"{""rt"": null, ""stimulus"": ""<img src=\""/static/images/icons/Slide9.png\""></img>"", ""key_press"": null, ""test_part"": ""training"", ""next_elem"": ""Slide4"", ""trial_type"": ""html-keyboard-response"", ""trial_index"": 201, ""time_elapsed"": 285227, ""internal_node_id"": ""0.0-10.0-0.0-0.17"", ""uniqueId"": ""A2BV7O07LVX731:36W0OB37HXEI7USAKE6NWZ7QCVKZH5"", ""condition"": 0, ""counterbalance"": 0}"
A2BV7O07LVX731:36W0OB37HXEI7USAKE6NWZ7QCVKZH5,202,1595127797180,"{""rt"": null, ""stimulus"": ""<img src=\""/static/images/icons/Slide4.png\""></img>"", ""key_press"": null, ""test_part"": ""training"", ""next_elem"": ""Slide9"", ""trial_type"": ""html-keyboard-response"", ""trial_index"": 202, ""time_elapsed"": 286431, ""internal_node_id"": ""0.0-10.0-0.0-0.18"", ""uniqueId"": ""A2BV7O07LVX731:36W0OB37HXEI7USAKE6NWZ7QCVKZH5"", ""condition"": 0, ""counterbalance"": 0}"
A2BV7O07LVX731:36W0OB37HXEI7USAKE6NWZ7QCVKZH5,203,1595127798382,"{""rt"": null, ""stimulus"": ""<img src=\""/static/images/icons/Slide9.png\""></img>"", ""key_press"": null, ""test_part"": ""training"", ""next_elem"": ""Slide4"", ""trial_type"": ""html-keyboard-response"", ""trial_index"": 203, ""time_elapsed"": 287634, ""internal_node_id"": ""0.0-10.0-0.0-0.19"", ""uniqueId"": ""A2BV7O07LVX731:36W0OB37HXEI7USAKE6NWZ7QCVKZH5"", ""condition"": 0, ""counterbalance"": 0}"
A2BV7O07LVX731:36W0OB37HXEI7USAKE6NWZ7QCVKZH5,204,1595127799585,"{""rt"": null, ""stimulus"": ""<img src=\""/static/images/icons/Slide4.png\""></img>"", ""key_press"": null, ""test_part"": ""training"", ""next_elem"": ""Slide9"", ""trial_type"": ""html-keyboard-response"", ""trial_index"": 204, ""time_elapsed"": 288837, ""internal_node_id"": ""0.0-10.0-0.0-0.20"", ""uniqueId"": ""A2BV7O07LVX731:36W0OB37HXEI7USAKE6NWZ7QCVKZH5"", ""condition"": 0, ""counterbalance"": 0}"
A2BV7O07LVX731:36W0OB37HXEI7USAKE6NWZ7QCVKZH5,205,1595127800788,"{""rt"": null, ""stimulus"": ""<img src=\""/static/images/icons/Slide9.png\""></img>"", ""key_press"": null, ""test_part"": ""training"", ""next_elem"": ""Slide9"", ""trial_type"": ""html-keyboard-response"", ""trial_index"": 205, ""time_elapsed"": 290040, ""internal_node_id"": ""0.0-10.0-0.0-0.21"", ""uniqueId"": ""A2BV7O07LVX731:36W0OB37HXEI7USAKE6NWZ7QCVKZH5"", ""condition"": 0, ""counterbalance"": 0}"
A2BV7O07LVX731:36W0OB37HXEI7USAKE6NWZ7QCVKZH5,206,1595127801992,"{""rt"": null, ""stimulus"": ""<img src=\""/static/images/icons/Slide9.png\""></img>"", ""key_press"": null, ""test_part"": ""training"", ""next_elem"": ""Slide49"", ""trial_type"": ""html-keyboard-response"", ""trial_index"": 206, ""time_elapsed"": 291244, ""internal_node_id"": ""0.0-10.0-0.0-0.22"", ""uniqueId"": ""A2BV7O07LVX731:36W0OB37HXEI7USAKE6NWZ7QCVKZH5"", ""condition"": 0, ""counterbalance"": 0}"
A2BV7O07LVX731:36W0OB37HXEI7USAKE6NWZ7QCVKZH5,207,1595127803196,"{""rt"": null, ""stimulus"": ""<img src=\""/static/images/icons/Slide49.png\""></img>"", ""key_press"": null, ""test_part"": ""training"", ""next_elem"": ""Slide4"", ""trial_type"": ""html-keyboard-response"", ""trial_index"": 207, ""time_elapsed"": 292448, ""internal_node_id"": ""0.0-10.0-0.0-0.23"", ""uniqueId"": ""A2BV7O07LVX731:36W0OB37HXEI7USAKE6NWZ7QCVKZH5"", ""condition"": 0, ""counterbalance"": 0}"
A2BV7O07LVX731:36W0OB37HXEI7USAKE6NWZ7QCVKZH5,208,1595127804398,"{""rt"": null, ""stimulus"": ""<img src=\""/static/images/icons/Slide4.png\""></img>"", ""key_press"": null, ""test_part"": ""training"", ""next_elem"": ""Slide4"", ""trial_type"": ""html-keyboard-response"", ""trial_index"": 208, ""time_elapsed"": 293650, ""internal_node_id"": ""0.0-10.0-0.0-0.24"", ""uniqueId"": ""A2BV7O07LVX731:36W0OB37HXEI7USAKE6NWZ7QCVKZH5"", ""condition"": 0, ""counterbalance"": 0}"
A2BV7O07LVX731:36W0OB37HXEI7USAKE6NWZ7QCVKZH5,209,1595127805602,"{""rt"": null, ""stimulus"": ""<img src=\""/static/images/icons/Slide4.png\""></img>"", ""key_press"": null, ""test_part"": ""training"", ""next_elem"": ""Slide4"", ""trial_type"": ""html-keyboard-response"", ""trial_index"": 209, ""time_elapsed"": 294854, ""internal_node_id"": ""0.0-10.0-0.0-0.25"", ""uniqueId"": ""A2BV7O07LVX731:36W0OB37HXEI7USAKE6NWZ7QCVKZH5"", ""condition"": 0, ""counterbalance"": 0}"
