debugfPGMP:debug36Wqn,0,1595208952836,"{""rt"": 8376, ""responses"": ""{\""Q0\"":\""5d14445a4e1adb0001bff411\""}"", ""test_part"": ""id_check"", ""trial_type"": ""survey-text"", ""trial_index"": 0, ""time_elapsed"": 8382, ""internal_node_id"": ""0.0-0.0"", ""uniqueId"": ""debugfPGMP:debug36Wqn"", ""condition"": 0, ""counterbalance"": 0}"
debugfPGMP:debug36Wqn,1,1595208964409,"{""rt"": 11568, ""responses"": ""{\""Q0\"":\""Circle, green\""}"", ""test_part"": ""botcheck"", ""trial_type"": ""survey-text"", ""trial_index"": 1, ""time_elapsed"": 19955, ""internal_node_id"": ""0.0-1.0"", ""uniqueId"": ""debugfPGMP:debug36Wqn"", ""condition"": 0, ""counterbalance"": 0}"
debugfPGMP:debug36Wqn,2,1595208975535,"{""rt"": 11124, ""stimulus"": ""<p> <i> Thank you for participating in our experiment!  </i> </p><p> This session will last for 5min. <b> Please complete it in full screen mode. </b> </p><p> Do this experiment in one go, otherwise it will time out and we will </p><p> not be able to pay you. </p> "", ""button_pressed"": ""0"", ""test_part"": ""instructions"", ""trial_type"": ""html-button-response"", ""trial_index"": 2, ""time_elapsed"": 31082, ""internal_node_id"": ""0.0-2.0"", ""uniqueId"": ""debugfPGMP:debug36Wqn"", ""condition"": 0, ""counterbalance"": 0}"
debugfPGMP:debug36Wqn,3,1595208983744,"{""rt"": 7207, ""stimulus"": ""<p> In each trial, you will see sequences of icons appearing one-by-one. </p><p> <b> Your task is very easy: Watch the icons closely, and for as long as you like.  </b> </p><p> Whenever you lose interest in the sequence, press space bar to see the next one. </p>"", ""button_pressed"": ""0"", ""test_part"": ""instructions"", ""trial_type"": ""html-button-response"", ""trial_index"": 3, ""time_elapsed"": 39291, ""internal_node_id"": ""0.0-3.0"", ""uniqueId"": ""debugfPGMP:debug36Wqn"", ""condition"": 0, ""counterbalance"": 0}"
debugfPGMP:debug36Wqn,4,1595208992888,"{""rt"": 8143, ""stimulus"": ""<p> To re-iterate: Your task is simply to watch the icons, </p><p> and press the space bar whenever you lose interest in the sequence. </p><p> The experiment will end automatically after 5 minutes. </p><p> <b> Please, maintain your attention during the experiment. </b> </p><p> You may encounter little, unexpected tests during the experiment, </p><p>  to make sure you are paying attention. </p>"", ""button_pressed"": ""0"", ""test_part"": ""instructions"", ""trial_type"": ""html-button-response"", ""trial_index"": 4, ""time_elapsed"": 48435, ""internal_node_id"": ""0.0-4.0"", ""uniqueId"": ""debugfPGMP:debug36Wqn"", ""condition"": 0, ""counterbalance"": 0}"
debugfPGMP:debug36Wqn,5,1595208994792,"{""rt"": null, ""stimulus"": ""<img src=\""/static/images/icons/Slide16.png\""></img>"", ""key_press"": null, ""test_part"": ""training"", ""next_elem"": ""Slide16"", ""trial_type"": ""html-keyboard-response"", ""trial_index"": 5, ""time_elapsed"": 50339, ""internal_node_id"": ""0.0-5.0-0.0-0.0"", ""uniqueId"": ""debugfPGMP:debug36Wqn"", ""condition"": 0, ""counterbalance"": 0}"
debugfPGMP:debug36Wqn,6,1595208995995,"{""rt"": null, ""stimulus"": ""<img src=\""/static/images/icons/Slide16.png\""></img>"", ""key_press"": null, ""test_part"": ""training"", ""next_elem"": ""Slide12"", ""trial_type"": ""html-keyboard-response"", ""trial_index"": 6, ""time_elapsed"": 51542, ""internal_node_id"": ""0.0-5.0-0.0-0.1"", ""uniqueId"": ""debugfPGMP:debug36Wqn"", ""condition"": 0, ""counterbalance"": 0}"
debugfPGMP:debug36Wqn,7,1595208997201,"{""rt"": null, ""stimulus"": ""<img src=\""/static/images/icons/Slide12.png\""></img>"", ""key_press"": null, ""test_part"": ""training"", ""next_elem"": ""Slide40"", ""trial_type"": ""html-keyboard-response"", ""trial_index"": 7, ""time_elapsed"": 52747, ""internal_node_id"": ""0.0-5.0-0.0-0.2"", ""uniqueId"": ""debugfPGMP:debug36Wqn"", ""condition"": 0, ""counterbalance"": 0}"
debugfPGMP:debug36Wqn,8,1595208998405,"{""rt"": null, ""stimulus"": ""<img src=\""/static/images/icons/Slide40.png\""></img>"", ""key_press"": null, ""test_part"": ""training"", ""next_elem"": ""Slide16"", ""trial_type"": ""html-keyboard-response"", ""trial_index"": 8, ""time_elapsed"": 53951, ""internal_node_id"": ""0.0-5.0-0.0-0.3"", ""uniqueId"": ""debugfPGMP:debug36Wqn"", ""condition"": 0, ""counterbalance"": 0}"
debugfPGMP:debug36Wqn,9,1595208999606,"{""rt"": null, ""stimulus"": ""<img src=\""/static/images/icons/Slide16.png\""></img>"", ""key_press"": null, ""test_part"": ""training"", ""next_elem"": ""Slide40"", ""trial_type"": ""html-keyboard-response"", ""trial_index"": 9, ""time_elapsed"": 55153, ""internal_node_id"": ""0.0-5.0-0.0-0.4"", ""uniqueId"": ""debugfPGMP:debug36Wqn"", ""condition"": 0, ""counterbalance"": 0}"
debugfPGMP:debug36Wqn,10,1595209000810,"{""rt"": null, ""stimulus"": ""<img src=\""/static/images/icons/Slide40.png\""></img>"", ""key_press"": null, ""test_part"": ""training"", ""next_elem"": ""Slide12"", ""trial_type"": ""html-keyboard-response"", ""trial_index"": 10, ""time_elapsed"": 56357, ""internal_node_id"": ""0.0-5.0-0.0-0.5"", ""uniqueId"": ""debugfPGMP:debug36Wqn"", ""condition"": 0, ""counterbalance"": 0}"
debugfPGMP:debug36Wqn,11,1595209001956,"{""rt"": 843, ""stimulus"": ""<img src=\""/static/images/icons/Slide12.png\""></img>"", ""key_press"": 32, ""test_part"": ""training"", ""next_elem"": ""Slide40"", ""trial_type"": ""html-keyboard-response"", ""trial_index"": 11, ""time_elapsed"": 57503, ""internal_node_id"": ""0.0-5.0-0.0-0.6"", ""uniqueId"": ""debugfPGMP:debug36Wqn"", ""condition"": 0, ""counterbalance"": 0}"
debugfPGMP:debug36Wqn,12,1595209005759,"{""rt"": null, ""stimulus"": ""Next sequence coming up.."", ""key_press"": null, ""test_part"": ""between_sequences"", ""trial_type"": ""html-keyboard-response"", ""trial_index"": 12, ""time_elapsed"": 61306, ""internal_node_id"": ""0.0-5.0-1.0"", ""uniqueId"": ""debugfPGMP:debug36Wqn"", ""condition"": 0, ""counterbalance"": 0}"
debugfPGMP:debug36Wqn,13,1595209006660,"{""rt"": null, ""stimulus"": ""<img src=\""/static/images/icons/Slide23.png\""></img>"", ""key_press"": null, ""test_part"": ""training"", ""next_elem"": ""Slide13"", ""trial_type"": ""html-keyboard-response"", ""trial_index"": 13, ""time_elapsed"": 62207, ""internal_node_id"": ""0.0-6.0-0.0-0.0"", ""uniqueId"": ""debugfPGMP:debug36Wqn"", ""condition"": 0, ""counterbalance"": 0}"
debugfPGMP:debug36Wqn,14,1595209007863,"{""rt"": null, ""stimulus"": ""<img src=\""/static/images/icons/Slide13.png\""></img>"", ""key_press"": null, ""test_part"": ""training"", ""next_elem"": ""Slide23"", ""trial_type"": ""html-keyboard-response"", ""trial_index"": 14, ""time_elapsed"": 63410, ""internal_node_id"": ""0.0-6.0-0.0-0.1"", ""uniqueId"": ""debugfPGMP:debug36Wqn"", ""condition"": 0, ""counterbalance"": 0}"
debugfPGMP:debug36Wqn,15,1595209009065,"{""rt"": null, ""stimulus"": ""<img src=\""/static/images/icons/Slide23.png\""></img>"", ""key_press"": null, ""test_part"": ""training"", ""next_elem"": ""Slide13"", ""trial_type"": ""html-keyboard-response"", ""trial_index"": 15, ""time_elapsed"": 64612, ""internal_node_id"": ""0.0-6.0-0.0-0.2"", ""uniqueId"": ""debugfPGMP:debug36Wqn"", ""condition"": 0, ""counterbalance"": 0}"
debugfPGMP:debug36Wqn,16,1595209010267,"{""rt"": null, ""stimulus"": ""<img src=\""/static/images/icons/Slide13.png\""></img>"", ""key_press"": null, ""test_part"": ""training"", ""next_elem"": ""Slide23"", ""trial_type"": ""html-keyboard-response"", ""trial_index"": 16, ""time_elapsed"": 65814, ""internal_node_id"": ""0.0-6.0-0.0-0.3"", ""uniqueId"": ""debugfPGMP:debug36Wqn"", ""condition"": 0, ""counterbalance"": 0}"
debugfPGMP:debug36Wqn,17,1595209010981,"{""rt"": 412, ""stimulus"": ""<img src=\""/static/images/icons/Slide23.png\""></img>"", ""key_press"": 32, ""test_part"": ""training"", ""next_elem"": ""Slide13"", ""trial_type"": ""html-keyboard-response"", ""trial_index"": 17, ""time_elapsed"": 66527, ""internal_node_id"": ""0.0-6.0-0.0-0.4"", ""uniqueId"": ""debugfPGMP:debug36Wqn"", ""condition"": 0, ""counterbalance"": 0}"
debugfPGMP:debug36Wqn,18,1595209014784,"{""rt"": null, ""stimulus"": ""Next sequence coming up.."", ""key_press"": null, ""test_part"": ""between_sequences"", ""trial_type"": ""html-keyboard-response"", ""trial_index"": 18, ""time_elapsed"": 70331, ""internal_node_id"": ""0.0-6.0-1.0"", ""uniqueId"": ""debugfPGMP:debug36Wqn"", ""condition"": 0, ""counterbalance"": 0}"
debugfPGMP:debug36Wqn,19,1595209015686,"{""rt"": null, ""stimulus"": ""<img src=\""/static/images/icons/Slide18.png\""></img>"", ""key_press"": null, ""test_part"": ""training"", ""next_elem"": ""Slide54"", ""trial_type"": ""html-keyboard-response"", ""trial_index"": 19, ""time_elapsed"": 71233, ""internal_node_id"": ""0.0-7.0-0.0-0.0"", ""uniqueId"": ""debugfPGMP:debug36Wqn"", ""condition"": 0, ""counterbalance"": 0}"
debugfPGMP:debug36Wqn,20,1595209016887,"{""rt"": null, ""stimulus"": ""<img src=\""/static/images/icons/Slide54.png\""></img>"", ""key_press"": null, ""test_part"": ""training"", ""next_elem"": ""Slide27"", ""trial_type"": ""html-keyboard-response"", ""trial_index"": 20, ""time_elapsed"": 72434, ""internal_node_id"": ""0.0-7.0-0.0-0.1"", ""uniqueId"": ""debugfPGMP:debug36Wqn"", ""condition"": 0, ""counterbalance"": 0}"
debugfPGMP:debug36Wqn,21,1595209018090,"{""rt"": null, ""stimulus"": ""<img src=\""/static/images/icons/Slide27.png\""></img>"", ""key_press"": null, ""test_part"": ""training"", ""next_elem"": ""Slide54"", ""trial_type"": ""html-keyboard-response"", ""trial_index"": 21, ""time_elapsed"": 73637, ""internal_node_id"": ""0.0-7.0-0.0-0.2"", ""uniqueId"": ""debugfPGMP:debug36Wqn"", ""condition"": 0, ""counterbalance"": 0}"
debugfPGMP:debug36Wqn,22,1595209019292,"{""rt"": null, ""stimulus"": ""<img src=\""/static/images/icons/Slide54.png\""></img>"", ""key_press"": null, ""test_part"": ""training"", ""next_elem"": ""Slide27"", ""trial_type"": ""html-keyboard-response"", ""trial_index"": 22, ""time_elapsed"": 74839, ""internal_node_id"": ""0.0-7.0-0.0-0.3"", ""uniqueId"": ""debugfPGMP:debug36Wqn"", ""condition"": 0, ""counterbalance"": 0}"
debugfPGMP:debug36Wqn,23,1595209020494,"{""rt"": null, ""stimulus"": ""<img src=\""/static/images/icons/Slide27.png\""></img>"", ""key_press"": null, ""test_part"": ""training"", ""next_elem"": ""Slide18"", ""trial_type"": ""html-keyboard-response"", ""trial_index"": 23, ""time_elapsed"": 76041, ""internal_node_id"": ""0.0-7.0-0.0-0.4"", ""uniqueId"": ""debugfPGMP:debug36Wqn"", ""condition"": 0, ""counterbalance"": 0}"
debugfPGMP:debug36Wqn,24,1595209020797,"{""rt"": 1, ""stimulus"": ""<img src=\""/static/images/icons/Slide18.png\""></img>"", ""key_press"": 32, ""test_part"": ""training"", ""next_elem"": ""Slide54"", ""trial_type"": ""html-keyboard-response"", ""trial_index"": 24, ""time_elapsed"": 76344, ""internal_node_id"": ""0.0-7.0-0.0-0.5"", ""uniqueId"": ""debugfPGMP:debug36Wqn"", ""condition"": 0, ""counterbalance"": 0}"
debugfPGMP:debug36Wqn,25,1595209024598,"{""rt"": null, ""stimulus"": ""Next sequence coming up.."", ""key_press"": null, ""test_part"": ""between_sequences"", ""trial_type"": ""html-keyboard-response"", ""trial_index"": 25, ""time_elapsed"": 80145, ""internal_node_id"": ""0.0-7.0-1.0"", ""uniqueId"": ""debugfPGMP:debug36Wqn"", ""condition"": 0, ""counterbalance"": 0}"
debugfPGMP:debug36Wqn,26,1595209025499,"{""rt"": null, ""stimulus"": ""<img src=\""/static/images/icons/Slide17.png\""></img>"", ""key_press"": null, ""test_part"": ""training"", ""next_elem"": ""Slide45"", ""trial_type"": ""html-keyboard-response"", ""trial_index"": 26, ""time_elapsed"": 81046, ""internal_node_id"": ""0.0-8.0-0.0-0.0"", ""uniqueId"": ""debugfPGMP:debug36Wqn"", ""condition"": 0, ""counterbalance"": 0}"
debugfPGMP:debug36Wqn,27,1595209026702,"{""rt"": null, ""stimulus"": ""<img src=\""/static/images/icons/Slide45.png\""></img>"", ""key_press"": null, ""test_part"": ""training"", ""next_elem"": ""Slide17"", ""trial_type"": ""html-keyboard-response"", ""trial_index"": 27, ""time_elapsed"": 82248, ""internal_node_id"": ""0.0-8.0-0.0-0.1"", ""uniqueId"": ""debugfPGMP:debug36Wqn"", ""condition"": 0, ""counterbalance"": 0}"
debugfPGMP:debug36Wqn,28,1595209027904,"{""rt"": null, ""stimulus"": ""<img src=\""/static/images/icons/Slide17.png\""></img>"", ""key_press"": null, ""test_part"": ""training"", ""next_elem"": ""Slide45"", ""trial_type"": ""html-keyboard-response"", ""trial_index"": 28, ""time_elapsed"": 83451, ""internal_node_id"": ""0.0-8.0-0.0-0.2"", ""uniqueId"": ""debugfPGMP:debug36Wqn"", ""condition"": 0, ""counterbalance"": 0}"
debugfPGMP:debug36Wqn,29,1595209028590,"{""rt"": 384, ""stimulus"": ""<img src=\""/static/images/icons/Slide45.png\""></img>"", ""key_press"": 32, ""test_part"": ""training"", ""next_elem"": ""Slide17"", ""trial_type"": ""html-keyboard-response"", ""trial_index"": 29, ""time_elapsed"": 84137, ""internal_node_id"": ""0.0-8.0-0.0-0.3"", ""uniqueId"": ""debugfPGMP:debug36Wqn"", ""condition"": 0, ""counterbalance"": 0}"
debugfPGMP:debug36Wqn,30,1595209032391,"{""rt"": null, ""stimulus"": ""Next sequence coming up.."", ""key_press"": null, ""test_part"": ""between_sequences"", ""trial_type"": ""html-keyboard-response"", ""trial_index"": 30, ""time_elapsed"": 87938, ""internal_node_id"": ""0.0-8.0-1.0"", ""uniqueId"": ""debugfPGMP:debug36Wqn"", ""condition"": 0, ""counterbalance"": 0}"
debugfPGMP:debug36Wqn,31,1595209033292,"{""rt"": null, ""stimulus"": ""<img src=\""/static/images/icons/Slide8.png\""></img>"", ""key_press"": null, ""test_part"": ""training"", ""next_elem"": ""Slide8"", ""trial_type"": ""html-keyboard-response"", ""trial_index"": 31, ""time_elapsed"": 88839, ""internal_node_id"": ""0.0-9.0-0.0-0.0"", ""uniqueId"": ""debugfPGMP:debug36Wqn"", ""condition"": 0, ""counterbalance"": 0}"
debugfPGMP:debug36Wqn,32,1595209034495,"{""rt"": null, ""stimulus"": ""<img src=\""/static/images/icons/Slide8.png\""></img>"", ""key_press"": null, ""test_part"": ""training"", ""next_elem"": ""Slide8"", ""trial_type"": ""html-keyboard-response"", ""trial_index"": 32, ""time_elapsed"": 90042, ""internal_node_id"": ""0.0-9.0-0.0-0.1"", ""uniqueId"": ""debugfPGMP:debug36Wqn"", ""condition"": 0, ""counterbalance"": 0}"
debugfPGMP:debug36Wqn,33,1595209035695,"{""rt"": null, ""stimulus"": ""<img src=\""/static/images/icons/Slide8.png\""></img>"", ""key_press"": null, ""test_part"": ""training"", ""next_elem"": ""Slide41"", ""trial_type"": ""html-keyboard-response"", ""trial_index"": 33, ""time_elapsed"": 91242, ""internal_node_id"": ""0.0-9.0-0.0-0.2"", ""uniqueId"": ""debugfPGMP:debug36Wqn"", ""condition"": 0, ""counterbalance"": 0}"
debugfPGMP:debug36Wqn,34,1595209036898,"{""rt"": null, ""stimulus"": ""<img src=\""/static/images/icons/Slide41.png\""></img>"", ""key_press"": null, ""test_part"": ""training"", ""next_elem"": ""Slide41"", ""trial_type"": ""html-keyboard-response"", ""trial_index"": 34, ""time_elapsed"": 92445, ""internal_node_id"": ""0.0-9.0-0.0-0.3"", ""uniqueId"": ""debugfPGMP:debug36Wqn"", ""condition"": 0, ""counterbalance"": 0}"
debugfPGMP:debug36Wqn,35,1595209038099,"{""rt"": null, ""stimulus"": ""<img src=\""/static/images/icons/Slide41.png\""></img>"", ""key_press"": null, ""test_part"": ""training"", ""next_elem"": ""Slide8"", ""trial_type"": ""html-keyboard-response"", ""trial_index"": 35, ""time_elapsed"": 93646, ""internal_node_id"": ""0.0-9.0-0.0-0.4"", ""uniqueId"": ""debugfPGMP:debug36Wqn"", ""condition"": 0, ""counterbalance"": 0}"
debugfPGMP:debug36Wqn,36,1595209038788,"{""rt"": 388, ""stimulus"": ""<img src=\""/static/images/icons/Slide8.png\""></img>"", ""key_press"": 32, ""test_part"": ""training"", ""next_elem"": ""Slide8"", ""trial_type"": ""html-keyboard-response"", ""trial_index"": 36, ""time_elapsed"": 94335, ""internal_node_id"": ""0.0-9.0-0.0-0.5"", ""uniqueId"": ""debugfPGMP:debug36Wqn"", ""condition"": 0, ""counterbalance"": 0}"
debugfPGMP:debug36Wqn,37,1595209042590,"{""rt"": null, ""stimulus"": ""Next sequence coming up.."", ""key_press"": null, ""test_part"": ""between_sequences"", ""trial_type"": ""html-keyboard-response"", ""trial_index"": 37, ""time_elapsed"": 98137, ""internal_node_id"": ""0.0-9.0-1.0"", ""uniqueId"": ""debugfPGMP:debug36Wqn"", ""condition"": 0, ""counterbalance"": 0}"
debugfPGMP:debug36Wqn,38,1595209043492,"{""rt"": null, ""stimulus"": ""<img src=\""/static/images/icons/Slide29.png\""></img>"", ""key_press"": null, ""test_part"": ""training"", ""next_elem"": ""Slide29"", ""trial_type"": ""html-keyboard-response"", ""trial_index"": 38, ""time_elapsed"": 99038, ""internal_node_id"": ""0.0-10.0-0.0-0.0"", ""uniqueId"": ""debugfPGMP:debug36Wqn"", ""condition"": 0, ""counterbalance"": 0}"
debugfPGMP:debug36Wqn,39,1595209044694,"{""rt"": null, ""stimulus"": ""<img src=\""/static/images/icons/Slide29.png\""></img>"", ""key_press"": null, ""test_part"": ""training"", ""next_elem"": ""Slide38"", ""trial_type"": ""html-keyboard-response"", ""trial_index"": 39, ""time_elapsed"": 100241, ""internal_node_id"": ""0.0-10.0-0.0-0.1"", ""uniqueId"": ""debugfPGMP:debug36Wqn"", ""condition"": 0, ""counterbalance"": 0}"
debugfPGMP:debug36Wqn,40,1595209045895,"{""rt"": null, ""stimulus"": ""<img src=\""/static/images/icons/Slide38.png\""></img>"", ""key_press"": null, ""test_part"": ""training"", ""next_elem"": ""Slide29"", ""trial_type"": ""html-keyboard-response"", ""trial_index"": 40, ""time_elapsed"": 101442, ""internal_node_id"": ""0.0-10.0-0.0-0.2"", ""uniqueId"": ""debugfPGMP:debug36Wqn"", ""condition"": 0, ""counterbalance"": 0}"
debugfPGMP:debug36Wqn,41,1595209047096,"{""rt"": null, ""stimulus"": ""<img src=\""/static/images/icons/Slide29.png\""></img>"", ""key_press"": null, ""test_part"": ""training"", ""next_elem"": ""Slide29"", ""trial_type"": ""html-keyboard-response"", ""trial_index"": 41, ""time_elapsed"": 102643, ""internal_node_id"": ""0.0-10.0-0.0-0.3"", ""uniqueId"": ""debugfPGMP:debug36Wqn"", ""condition"": 0, ""counterbalance"": 0}"
debugfPGMP:debug36Wqn,42,1595209047653,"{""rt"": 255, ""stimulus"": ""<img src=\""/static/images/icons/Slide29.png\""></img>"", ""key_press"": 32, ""test_part"": ""training"", ""next_elem"": ""Slide38"", ""trial_type"": ""html-keyboard-response"", ""trial_index"": 42, ""time_elapsed"": 103200, ""internal_node_id"": ""0.0-10.0-0.0-0.4"", ""uniqueId"": ""debugfPGMP:debug36Wqn"", ""condition"": 0, ""counterbalance"": 0}"
debugfPGMP:debug36Wqn,43,1595209051455,"{""rt"": null, ""stimulus"": ""Next sequence coming up.."", ""key_press"": null, ""test_part"": ""between_sequences"", ""trial_type"": ""html-keyboard-response"", ""trial_index"": 43, ""time_elapsed"": 107002, ""internal_node_id"": ""0.0-10.0-1.0"", ""uniqueId"": ""debugfPGMP:debug36Wqn"", ""condition"": 0, ""counterbalance"": 0}"
debugfPGMP:debug36Wqn,44,1595209052356,"{""rt"": null, ""stimulus"": ""<img src=\""/static/images/icons/Slide39.png\""></img>"", ""key_press"": null, ""test_part"": ""training"", ""next_elem"": ""Slide50"", ""trial_type"": ""html-keyboard-response"", ""trial_index"": 44, ""time_elapsed"": 107903, ""internal_node_id"": ""0.0-11.0-0.0-0.0"", ""uniqueId"": ""debugfPGMP:debug36Wqn"", ""condition"": 0, ""counterbalance"": 0}"
debugfPGMP:debug36Wqn,45,1595209053557,"{""rt"": null, ""stimulus"": ""<img src=\""/static/images/icons/Slide50.png\""></img>"", ""key_press"": null, ""test_part"": ""training"", ""next_elem"": ""Slide50"", ""trial_type"": ""html-keyboard-response"", ""trial_index"": 45, ""time_elapsed"": 109104, ""internal_node_id"": ""0.0-11.0-0.0-0.1"", ""uniqueId"": ""debugfPGMP:debug36Wqn"", ""condition"": 0, ""counterbalance"": 0}"
debugfPGMP:debug36Wqn,46,1595209054758,"{""rt"": null, ""stimulus"": ""<img src=\""/static/images/icons/Slide50.png\""></img>"", ""key_press"": null, ""test_part"": ""training"", ""next_elem"": ""Slide39"", ""trial_type"": ""html-keyboard-response"", ""trial_index"": 46, ""time_elapsed"": 110305, ""internal_node_id"": ""0.0-11.0-0.0-0.2"", ""uniqueId"": ""debugfPGMP:debug36Wqn"", ""condition"": 0, ""counterbalance"": 0}"
debugfPGMP:debug36Wqn,47,1595209055960,"{""rt"": null, ""stimulus"": ""<img src=\""/static/images/icons/Slide39.png\""></img>"", ""key_press"": null, ""test_part"": ""training"", ""next_elem"": ""Slide50"", ""trial_type"": ""html-keyboard-response"", ""trial_index"": 47, ""time_elapsed"": 111506, ""internal_node_id"": ""0.0-11.0-0.0-0.3"", ""uniqueId"": ""debugfPGMP:debug36Wqn"", ""condition"": 0, ""counterbalance"": 0}"
debugfPGMP:debug36Wqn,48,1595209056901,"{""rt"": 640, ""stimulus"": ""<img src=\""/static/images/icons/Slide50.png\""></img>"", ""key_press"": 32, ""test_part"": ""training"", ""next_elem"": ""Slide50"", ""trial_type"": ""html-keyboard-response"", ""trial_index"": 48, ""time_elapsed"": 112448, ""internal_node_id"": ""0.0-11.0-0.0-0.4"", ""uniqueId"": ""debugfPGMP:debug36Wqn"", ""condition"": 0, ""counterbalance"": 0}"
debugfPGMP:debug36Wqn,49,1595209060703,"{""rt"": null, ""stimulus"": ""Next sequence coming up.."", ""key_press"": null, ""test_part"": ""between_sequences"", ""trial_type"": ""html-keyboard-response"", ""trial_index"": 49, ""time_elapsed"": 116250, ""internal_node_id"": ""0.0-11.0-1.0"", ""uniqueId"": ""debugfPGMP:debug36Wqn"", ""condition"": 0, ""counterbalance"": 0}"
debugfPGMP:debug36Wqn,50,1595209061604,"{""rt"": null, ""stimulus"": ""<img src=\""/static/images/icons/Slide60.png\""></img>"", ""key_press"": null, ""test_part"": ""training"", ""next_elem"": ""Slide26"", ""trial_type"": ""html-keyboard-response"", ""trial_index"": 50, ""time_elapsed"": 117151, ""internal_node_id"": ""0.0-12.0-0.0-0.0"", ""uniqueId"": ""debugfPGMP:debug36Wqn"", ""condition"": 0, ""counterbalance"": 0}"
debugfPGMP:debug36Wqn,51,1595209062807,"{""rt"": null, ""stimulus"": ""<img src=\""/static/images/icons/Slide26.png\""></img>"", ""key_press"": null, ""test_part"": ""training"", ""next_elem"": ""Slide26"", ""trial_type"": ""html-keyboard-response"", ""trial_index"": 51, ""time_elapsed"": 118354, ""internal_node_id"": ""0.0-12.0-0.0-0.1"", ""uniqueId"": ""debugfPGMP:debug36Wqn"", ""condition"": 0, ""counterbalance"": 0}"
debugfPGMP:debug36Wqn,52,1595209064008,"{""rt"": null, ""stimulus"": ""<img src=\""/static/images/icons/Slide26.png\""></img>"", ""key_press"": null, ""test_part"": ""training"", ""next_elem"": ""Slide60"", ""trial_type"": ""html-keyboard-response"", ""trial_index"": 52, ""time_elapsed"": 119555, ""internal_node_id"": ""0.0-12.0-0.0-0.2"", ""uniqueId"": ""debugfPGMP:debug36Wqn"", ""condition"": 0, ""counterbalance"": 0}"
debugfPGMP:debug36Wqn,53,1595209065209,"{""rt"": null, ""stimulus"": ""<img src=\""/static/images/icons/Slide60.png\""></img>"", ""key_press"": null, ""test_part"": ""training"", ""next_elem"": ""Slide26"", ""trial_type"": ""html-keyboard-response"", ""trial_index"": 53, ""time_elapsed"": 120756, ""internal_node_id"": ""0.0-12.0-0.0-0.3"", ""uniqueId"": ""debugfPGMP:debug36Wqn"", ""condition"": 0, ""counterbalance"": 0}"
debugfPGMP:debug36Wqn,54,1595209066410,"{""rt"": null, ""stimulus"": ""<img src=\""/static/images/icons/Slide26.png\""></img>"", ""key_press"": null, ""test_part"": ""training"", ""next_elem"": ""Slide26"", ""trial_type"": ""html-keyboard-response"", ""trial_index"": 54, ""time_elapsed"": 121957, ""internal_node_id"": ""0.0-12.0-0.0-0.4"", ""uniqueId"": ""debugfPGMP:debug36Wqn"", ""condition"": 0, ""counterbalance"": 0}"
debugfPGMP:debug36Wqn,55,1595209067125,"{""rt"": 414, ""stimulus"": ""<img src=\""/static/images/icons/Slide26.png\""></img>"", ""key_press"": 32, ""test_part"": ""training"", ""next_elem"": ""Slide60"", ""trial_type"": ""html-keyboard-response"", ""trial_index"": 55, ""time_elapsed"": 122672, ""internal_node_id"": ""0.0-12.0-0.0-0.5"", ""uniqueId"": ""debugfPGMP:debug36Wqn"", ""condition"": 0, ""counterbalance"": 0}"
debugfPGMP:debug36Wqn,56,1595209070926,"{""rt"": null, ""stimulus"": ""Next sequence coming up.."", ""key_press"": null, ""test_part"": ""between_sequences"", ""trial_type"": ""html-keyboard-response"", ""trial_index"": 56, ""time_elapsed"": 126473, ""internal_node_id"": ""0.0-12.0-1.0"", ""uniqueId"": ""debugfPGMP:debug36Wqn"", ""condition"": 0, ""counterbalance"": 0}"
debugfPGMP:debug36Wqn,57,1595209071827,"{""rt"": null, ""stimulus"": ""<img src=\""/static/images/icons/Slide15.png\""></img>"", ""key_press"": null, ""test_part"": ""training"", ""next_elem"": ""Slide15"", ""trial_type"": ""html-keyboard-response"", ""trial_index"": 57, ""time_elapsed"": 127374, ""internal_node_id"": ""0.0-13.0-0.0-0.0"", ""uniqueId"": ""debugfPGMP:debug36Wqn"", ""condition"": 0, ""counterbalance"": 0}"
debugfPGMP:debug36Wqn,58,1595209073029,"{""rt"": null, ""stimulus"": ""<img src=\""/static/images/icons/Slide15.png\""></img>"", ""key_press"": null, ""test_part"": ""training"", ""next_elem"": ""Slide14"", ""trial_type"": ""html-keyboard-response"", ""trial_index"": 58, ""time_elapsed"": 128576, ""internal_node_id"": ""0.0-13.0-0.0-0.1"", ""uniqueId"": ""debugfPGMP:debug36Wqn"", ""condition"": 0, ""counterbalance"": 0}"
debugfPGMP:debug36Wqn,59,1595209074231,"{""rt"": null, ""stimulus"": ""<img src=\""/static/images/icons/Slide14.png\""></img>"", ""key_press"": null, ""test_part"": ""training"", ""next_elem"": ""Slide4"", ""trial_type"": ""html-keyboard-response"", ""trial_index"": 59, ""time_elapsed"": 129778, ""internal_node_id"": ""0.0-13.0-0.0-0.2"", ""uniqueId"": ""debugfPGMP:debug36Wqn"", ""condition"": 0, ""counterbalance"": 0}"
debugfPGMP:debug36Wqn,60,1595209075433,"{""rt"": null, ""stimulus"": ""<img src=\""/static/images/icons/Slide4.png\""></img>"", ""key_press"": null, ""test_part"": ""training"", ""next_elem"": ""Slide15"", ""trial_type"": ""html-keyboard-response"", ""trial_index"": 60, ""time_elapsed"": 130980, ""internal_node_id"": ""0.0-13.0-0.0-0.3"", ""uniqueId"": ""debugfPGMP:debug36Wqn"", ""condition"": 0, ""counterbalance"": 0}"
debugfPGMP:debug36Wqn,61,1595209076109,"{""rt"": 375, ""stimulus"": ""<img src=\""/static/images/icons/Slide15.png\""></img>"", ""key_press"": 32, ""test_part"": ""training"", ""next_elem"": ""Slide4"", ""trial_type"": ""html-keyboard-response"", ""trial_index"": 61, ""time_elapsed"": 131656, ""internal_node_id"": ""0.0-13.0-0.0-0.4"", ""uniqueId"": ""debugfPGMP:debug36Wqn"", ""condition"": 0, ""counterbalance"": 0}"
debugfPGMP:debug36Wqn,62,1595209079911,"{""rt"": null, ""stimulus"": ""Next sequence coming up.."", ""key_press"": null, ""test_part"": ""between_sequences"", ""trial_type"": ""html-keyboard-response"", ""trial_index"": 62, ""time_elapsed"": 135458, ""internal_node_id"": ""0.0-13.0-1.0"", ""uniqueId"": ""debugfPGMP:debug36Wqn"", ""condition"": 0, ""counterbalance"": 0}"
debugfPGMP:debug36Wqn,63,1595209080813,"{""rt"": null, ""stimulus"": ""<img src=\""/static/images/icons/Slide35.png\""></img>"", ""key_press"": null, ""test_part"": ""training"", ""next_elem"": ""Slide35"", ""trial_type"": ""html-keyboard-response"", ""trial_index"": 63, ""time_elapsed"": 136360, ""internal_node_id"": ""0.0-14.0-0.0-0.0"", ""uniqueId"": ""debugfPGMP:debug36Wqn"", ""condition"": 0, ""counterbalance"": 0}"
debugfPGMP:debug36Wqn,64,1595209082015,"{""rt"": null, ""stimulus"": ""<img src=\""/static/images/icons/Slide35.png\""></img>"", ""key_press"": null, ""test_part"": ""training"", ""next_elem"": ""Slide35"", ""trial_type"": ""html-keyboard-response"", ""trial_index"": 64, ""time_elapsed"": 137562, ""internal_node_id"": ""0.0-14.0-0.0-0.1"", ""uniqueId"": ""debugfPGMP:debug36Wqn"", ""condition"": 0, ""counterbalance"": 0}"
debugfPGMP:debug36Wqn,65,1595209083218,"{""rt"": null, ""stimulus"": ""<img src=\""/static/images/icons/Slide35.png\""></img>"", ""key_press"": null, ""test_part"": ""training"", ""next_elem"": ""Slide35"", ""trial_type"": ""html-keyboard-response"", ""trial_index"": 65, ""time_elapsed"": 138765, ""internal_node_id"": ""0.0-14.0-0.0-0.2"", ""uniqueId"": ""debugfPGMP:debug36Wqn"", ""condition"": 0, ""counterbalance"": 0}"
debugfPGMP:debug36Wqn,66,1595209084419,"{""rt"": null, ""stimulus"": ""<img src=\""/static/images/icons/Slide35.png\""></img>"", ""key_press"": null, ""test_part"": ""training"", ""next_elem"": ""Slide35"", ""trial_type"": ""html-keyboard-response"", ""trial_index"": 66, ""time_elapsed"": 139966, ""internal_node_id"": ""0.0-14.0-0.0-0.3"", ""uniqueId"": ""debugfPGMP:debug36Wqn"", ""condition"": 0, ""counterbalance"": 0}"
debugfPGMP:debug36Wqn,67,1595209085620,"{""rt"": null, ""stimulus"": ""<img src=\""/static/images/icons/Slide35.png\""></img>"", ""key_press"": null, ""test_part"": ""training"", ""next_elem"": ""Slide35"", ""trial_type"": ""html-keyboard-response"", ""trial_index"": 67, ""time_elapsed"": 141167, ""internal_node_id"": ""0.0-14.0-0.0-0.4"", ""uniqueId"": ""debugfPGMP:debug36Wqn"", ""condition"": 0, ""counterbalance"": 0}"
debugfPGMP:debug36Wqn,68,1595209086822,"{""rt"": null, ""stimulus"": ""<img src=\""/static/images/icons/Slide35.png\""></img>"", ""key_press"": null, ""test_part"": ""training"", ""next_elem"": ""Slide35"", ""trial_type"": ""html-keyboard-response"", ""trial_index"": 68, ""time_elapsed"": 142369, ""internal_node_id"": ""0.0-14.0-0.0-0.5"", ""uniqueId"": ""debugfPGMP:debug36Wqn"", ""condition"": 0, ""counterbalance"": 0}"
debugfPGMP:debug36Wqn,69,1595209087453,"{""rt"": 328, ""stimulus"": ""<img src=\""/static/images/icons/Slide35.png\""></img>"", ""key_press"": 32, ""test_part"": ""training"", ""next_elem"": ""Slide35"", ""trial_type"": ""html-keyboard-response"", ""trial_index"": 69, ""time_elapsed"": 143000, ""internal_node_id"": ""0.0-14.0-0.0-0.6"", ""uniqueId"": ""debugfPGMP:debug36Wqn"", ""condition"": 0, ""counterbalance"": 0}"
debugfPGMP:debug36Wqn,70,1595209091255,"{""rt"": null, ""stimulus"": ""Next sequence coming up.."", ""key_press"": null, ""test_part"": ""between_sequences"", ""trial_type"": ""html-keyboard-response"", ""trial_index"": 70, ""time_elapsed"": 146802, ""internal_node_id"": ""0.0-14.0-1.0"", ""uniqueId"": ""debugfPGMP:debug36Wqn"", ""condition"": 0, ""counterbalance"": 0}"
debugfPGMP:debug36Wqn,71,1595209092156,"{""rt"": null, ""stimulus"": ""<img src=\""/static/images/icons/Slide44.png\""></img>"", ""key_press"": null, ""test_part"": ""training"", ""next_elem"": ""Slide49"", ""trial_type"": ""html-keyboard-response"", ""trial_index"": 71, ""time_elapsed"": 147703, ""internal_node_id"": ""0.0-15.0-0.0-0.0"", ""uniqueId"": ""debugfPGMP:debug36Wqn"", ""condition"": 0, ""counterbalance"": 0}"
debugfPGMP:debug36Wqn,72,1595209093357,"{""rt"": null, ""stimulus"": ""<img src=\""/static/images/icons/Slide49.png\""></img>"", ""key_press"": null, ""test_part"": ""training"", ""next_elem"": ""Slide44"", ""trial_type"": ""html-keyboard-response"", ""trial_index"": 72, ""time_elapsed"": 148904, ""internal_node_id"": ""0.0-15.0-0.0-0.1"", ""uniqueId"": ""debugfPGMP:debug36Wqn"", ""condition"": 0, ""counterbalance"": 0}"
debugfPGMP:debug36Wqn,73,1595209094560,"{""rt"": null, ""stimulus"": ""<img src=\""/static/images/icons/Slide44.png\""></img>"", ""key_press"": null, ""test_part"": ""training"", ""next_elem"": ""Slide44"", ""trial_type"": ""html-keyboard-response"", ""trial_index"": 73, ""time_elapsed"": 150107, ""internal_node_id"": ""0.0-15.0-0.0-0.2"", ""uniqueId"": ""debugfPGMP:debug36Wqn"", ""condition"": 0, ""counterbalance"": 0}"
debugfPGMP:debug36Wqn,74,1595209095149,"{""rt"": 287, ""stimulus"": ""<img src=\""/static/images/icons/Slide44.png\""></img>"", ""key_press"": 32, ""test_part"": ""training"", ""next_elem"": ""Slide44"", ""trial_type"": ""html-keyboard-response"", ""trial_index"": 74, ""time_elapsed"": 150696, ""internal_node_id"": ""0.0-15.0-0.0-0.3"", ""uniqueId"": ""debugfPGMP:debug36Wqn"", ""condition"": 0, ""counterbalance"": 0}"
debugfPGMP:debug36Wqn,75,1595209098950,"{""rt"": null, ""stimulus"": ""Next sequence coming up.."", ""key_press"": null, ""test_part"": ""between_sequences"", ""trial_type"": ""html-keyboard-response"", ""trial_index"": 75, ""time_elapsed"": 154497, ""internal_node_id"": ""0.0-15.0-1.0"", ""uniqueId"": ""debugfPGMP:debug36Wqn"", ""condition"": 0, ""counterbalance"": 0}"
debugfPGMP:debug36Wqn,76,1595209099851,"{""rt"": null, ""stimulus"": ""<img src=\""/static/images/icons/Slide3.png\""></img>"", ""key_press"": null, ""test_part"": ""training"", ""next_elem"": ""Slide24"", ""trial_type"": ""html-keyboard-response"", ""trial_index"": 76, ""time_elapsed"": 155398, ""internal_node_id"": ""0.0-16.0-0.0-0.0"", ""uniqueId"": ""debugfPGMP:debug36Wqn"", ""condition"": 0, ""counterbalance"": 0}"
debugfPGMP:debug36Wqn,77,1595209101052,"{""rt"": null, ""stimulus"": ""<img src=\""/static/images/icons/Slide24.png\""></img>"", ""key_press"": null, ""test_part"": ""training"", ""next_elem"": ""Slide25"", ""trial_type"": ""html-keyboard-response"", ""trial_index"": 77, ""time_elapsed"": 156599, ""internal_node_id"": ""0.0-16.0-0.0-0.1"", ""uniqueId"": ""debugfPGMP:debug36Wqn"", ""condition"": 0, ""counterbalance"": 0}"
debugfPGMP:debug36Wqn,78,1595209102255,"{""rt"": null, ""stimulus"": ""<img src=\""/static/images/icons/Slide25.png\""></img>"", ""key_press"": null, ""test_part"": ""training"", ""next_elem"": ""Slide3"", ""trial_type"": ""html-keyboard-response"", ""trial_index"": 78, ""time_elapsed"": 157802, ""internal_node_id"": ""0.0-16.0-0.0-0.2"", ""uniqueId"": ""debugfPGMP:debug36Wqn"", ""condition"": 0, ""counterbalance"": 0}"
debugfPGMP:debug36Wqn,79,1595209103456,"{""rt"": null, ""stimulus"": ""<img src=\""/static/images/icons/Slide3.png\""></img>"", ""key_press"": null, ""test_part"": ""training"", ""next_elem"": ""Slide24"", ""trial_type"": ""html-keyboard-response"", ""trial_index"": 79, ""time_elapsed"": 159003, ""internal_node_id"": ""0.0-16.0-0.0-0.3"", ""uniqueId"": ""debugfPGMP:debug36Wqn"", ""condition"": 0, ""counterbalance"": 0}"
debugfPGMP:debug36Wqn,80,1595209104021,"{""rt"": 262, ""stimulus"": ""<img src=\""/static/images/icons/Slide24.png\""></img>"", ""key_press"": 32, ""test_part"": ""training"", ""next_elem"": ""Slide25"", ""trial_type"": ""html-keyboard-response"", ""trial_index"": 80, ""time_elapsed"": 159568, ""internal_node_id"": ""0.0-16.0-0.0-0.4"", ""uniqueId"": ""debugfPGMP:debug36Wqn"", ""condition"": 0, ""counterbalance"": 0}"
debugfPGMP:debug36Wqn,81,1595209107822,"{""rt"": null, ""stimulus"": ""Next sequence coming up.."", ""key_press"": null, ""test_part"": ""between_sequences"", ""trial_type"": ""html-keyboard-response"", ""trial_index"": 81, ""time_elapsed"": 163369, ""internal_node_id"": ""0.0-16.0-1.0"", ""uniqueId"": ""debugfPGMP:debug36Wqn"", ""condition"": 0, ""counterbalance"": 0}"
debugfPGMP:debug36Wqn,82,1595209108724,"{""rt"": null, ""stimulus"": ""<img src=\""/static/images/icons/Slide19.png\""></img>"", ""key_press"": null, ""test_part"": ""training"", ""next_elem"": ""Slide20"", ""trial_type"": ""html-keyboard-response"", ""trial_index"": 82, ""time_elapsed"": 164271, ""internal_node_id"": ""0.0-17.0-0.0-0.0"", ""uniqueId"": ""debugfPGMP:debug36Wqn"", ""condition"": 0, ""counterbalance"": 0}"
debugfPGMP:debug36Wqn,83,1595209109927,"{""rt"": null, ""stimulus"": ""<img src=\""/static/images/icons/Slide20.png\""></img>"", ""key_press"": null, ""test_part"": ""training"", ""next_elem"": ""Slide19"", ""trial_type"": ""html-keyboard-response"", ""trial_index"": 83, ""time_elapsed"": 165473, ""internal_node_id"": ""0.0-17.0-0.0-0.1"", ""uniqueId"": ""debugfPGMP:debug36Wqn"", ""condition"": 0, ""counterbalance"": 0}"
debugfPGMP:debug36Wqn,84,1595209111128,"{""rt"": null, ""stimulus"": ""<img src=\""/static/images/icons/Slide19.png\""></img>"", ""key_press"": null, ""test_part"": ""training"", ""next_elem"": ""Slide20"", ""trial_type"": ""html-keyboard-response"", ""trial_index"": 84, ""time_elapsed"": 166675, ""internal_node_id"": ""0.0-17.0-0.0-0.2"", ""uniqueId"": ""debugfPGMP:debug36Wqn"", ""condition"": 0, ""counterbalance"": 0}"
debugfPGMP:debug36Wqn,85,1595209112149,"{""rt"": 720, ""stimulus"": ""<img src=\""/static/images/icons/Slide20.png\""></img>"", ""key_press"": 32, ""test_part"": ""training"", ""next_elem"": ""Slide19"", ""trial_type"": ""html-keyboard-response"", ""trial_index"": 85, ""time_elapsed"": 167696, ""internal_node_id"": ""0.0-17.0-0.0-0.3"", ""uniqueId"": ""debugfPGMP:debug36Wqn"", ""condition"": 0, ""counterbalance"": 0}"
debugfPGMP:debug36Wqn,86,1595209115951,"{""rt"": null, ""stimulus"": ""Next sequence coming up.."", ""key_press"": null, ""test_part"": ""between_sequences"", ""trial_type"": ""html-keyboard-response"", ""trial_index"": 86, ""time_elapsed"": 171497, ""internal_node_id"": ""0.0-17.0-1.0"", ""uniqueId"": ""debugfPGMP:debug36Wqn"", ""condition"": 0, ""counterbalance"": 0}"
debugfPGMP:debug36Wqn,87,1595209116851,"{""rt"": null, ""stimulus"": ""<img src=\""/static/images/icons/Slide51.png\""></img>"", ""key_press"": null, ""test_part"": ""training"", ""next_elem"": ""Slide30"", ""trial_type"": ""html-keyboard-response"", ""trial_index"": 87, ""time_elapsed"": 172398, ""internal_node_id"": ""0.0-18.0-0.0-0.0"", ""uniqueId"": ""debugfPGMP:debug36Wqn"", ""condition"": 0, ""counterbalance"": 0}"
debugfPGMP:debug36Wqn,88,1595209118053,"{""rt"": null, ""stimulus"": ""<img src=\""/static/images/icons/Slide30.png\""></img>"", ""key_press"": null, ""test_part"": ""training"", ""next_elem"": ""Slide51"", ""trial_type"": ""html-keyboard-response"", ""trial_index"": 88, ""time_elapsed"": 173600, ""internal_node_id"": ""0.0-18.0-0.0-0.1"", ""uniqueId"": ""debugfPGMP:debug36Wqn"", ""condition"": 0, ""counterbalance"": 0}"
debugfPGMP:debug36Wqn,89,1595209119254,"{""rt"": null, ""stimulus"": ""<img src=\""/static/images/icons/Slide51.png\""></img>"", ""key_press"": null, ""test_part"": ""training"", ""next_elem"": ""Slide32"", ""trial_type"": ""html-keyboard-response"", ""trial_index"": 89, ""time_elapsed"": 174801, ""internal_node_id"": ""0.0-18.0-0.0-0.2"", ""uniqueId"": ""debugfPGMP:debug36Wqn"", ""condition"": 0, ""counterbalance"": 0}"
debugfPGMP:debug36Wqn,90,1595209120457,"{""rt"": null, ""stimulus"": ""<img src=\""/static/images/icons/Slide32.png\""></img>"", ""key_press"": null, ""test_part"": ""training"", ""next_elem"": ""Slide51"", ""trial_type"": ""html-keyboard-response"", ""trial_index"": 90, ""time_elapsed"": 176004, ""internal_node_id"": ""0.0-18.0-0.0-0.3"", ""uniqueId"": ""debugfPGMP:debug36Wqn"", ""condition"": 0, ""counterbalance"": 0}"
debugfPGMP:debug36Wqn,91,1595209121340,"{""rt"": 582, ""stimulus"": ""<img src=\""/static/images/icons/Slide51.png\""></img>"", ""key_press"": 32, ""test_part"": ""training"", ""next_elem"": ""Slide32"", ""trial_type"": ""html-keyboard-response"", ""trial_index"": 91, ""time_elapsed"": 176887, ""internal_node_id"": ""0.0-18.0-0.0-0.4"", ""uniqueId"": ""debugfPGMP:debug36Wqn"", ""condition"": 0, ""counterbalance"": 0}"
debugfPGMP:debug36Wqn,92,1595209125142,"{""rt"": null, ""stimulus"": ""Next sequence coming up.."", ""key_press"": null, ""test_part"": ""between_sequences"", ""trial_type"": ""html-keyboard-response"", ""trial_index"": 92, ""time_elapsed"": 180689, ""internal_node_id"": ""0.0-18.0-1.0"", ""uniqueId"": ""debugfPGMP:debug36Wqn"", ""condition"": 0, ""counterbalance"": 0}"
debugfPGMP:debug36Wqn,93,1595209126043,"{""rt"": null, ""stimulus"": ""<img src=\""/static/images/icons/Slide42.png\""></img>"", ""key_press"": null, ""test_part"": ""training"", ""next_elem"": ""Slide47"", ""trial_type"": ""html-keyboard-response"", ""trial_index"": 93, ""time_elapsed"": 181590, ""internal_node_id"": ""0.0-19.0-0.0-0.0"", ""uniqueId"": ""debugfPGMP:debug36Wqn"", ""condition"": 0, ""counterbalance"": 0}"
debugfPGMP:debug36Wqn,94,1595209127247,"{""rt"": null, ""stimulus"": ""<img src=\""/static/images/icons/Slide47.png\""></img>"", ""key_press"": null, ""test_part"": ""training"", ""next_elem"": ""Slide42"", ""trial_type"": ""html-keyboard-response"", ""trial_index"": 94, ""time_elapsed"": 182793, ""internal_node_id"": ""0.0-19.0-0.0-0.1"", ""uniqueId"": ""debugfPGMP:debug36Wqn"", ""condition"": 0, ""counterbalance"": 0}"
debugfPGMP:debug36Wqn,95,1595209128447,"{""rt"": null, ""stimulus"": ""<img src=\""/static/images/icons/Slide42.png\""></img>"", ""key_press"": null, ""test_part"": ""training"", ""next_elem"": ""Slide47"", ""trial_type"": ""html-keyboard-response"", ""trial_index"": 95, ""time_elapsed"": 183994, ""internal_node_id"": ""0.0-19.0-0.0-0.2"", ""uniqueId"": ""debugfPGMP:debug36Wqn"", ""condition"": 0, ""counterbalance"": 0}"
debugfPGMP:debug36Wqn,96,1595209128773,"{""rt"": 25, ""stimulus"": ""<img src=\""/static/images/icons/Slide47.png\""></img>"", ""key_press"": 32, ""test_part"": ""training"", ""next_elem"": ""Slide42"", ""trial_type"": ""html-keyboard-response"", ""trial_index"": 96, ""time_elapsed"": 184320, ""internal_node_id"": ""0.0-19.0-0.0-0.3"", ""uniqueId"": ""debugfPGMP:debug36Wqn"", ""condition"": 0, ""counterbalance"": 0}"
debugfPGMP:debug36Wqn,97,1595209132576,"{""rt"": null, ""stimulus"": ""Next sequence coming up.."", ""key_press"": null, ""test_part"": ""between_sequences"", ""trial_type"": ""html-keyboard-response"", ""trial_index"": 97, ""time_elapsed"": 188123, ""internal_node_id"": ""0.0-19.0-1.0"", ""uniqueId"": ""debugfPGMP:debug36Wqn"", ""condition"": 0, ""counterbalance"": 0}"
debugfPGMP:debug36Wqn,98,1595209133478,"{""rt"": null, ""stimulus"": ""<img src=\""/static/images/icons/Slide59.png\""></img>"", ""key_press"": null, ""test_part"": ""training"", ""next_elem"": ""Slide59"", ""trial_type"": ""html-keyboard-response"", ""trial_index"": 98, ""time_elapsed"": 189025, ""internal_node_id"": ""0.0-20.0-0.0-0.0"", ""uniqueId"": ""debugfPGMP:debug36Wqn"", ""condition"": 0, ""counterbalance"": 0}"
debugfPGMP:debug36Wqn,99,1595209134679,"{""rt"": null, ""stimulus"": ""<img src=\""/static/images/icons/Slide59.png\""></img>"", ""key_press"": null, ""test_part"": ""training"", ""next_elem"": ""Slide59"", ""trial_type"": ""html-keyboard-response"", ""trial_index"": 99, ""time_elapsed"": 190226, ""internal_node_id"": ""0.0-20.0-0.0-0.1"", ""uniqueId"": ""debugfPGMP:debug36Wqn"", ""condition"": 0, ""counterbalance"": 0}"
debugfPGMP:debug36Wqn,100,1595209135882,"{""rt"": null, ""stimulus"": ""<img src=\""/static/images/icons/Slide59.png\""></img>"", ""key_press"": null, ""test_part"": ""training"", ""next_elem"": ""Slide59"", ""trial_type"": ""html-keyboard-response"", ""trial_index"": 100, ""time_elapsed"": 191429, ""internal_node_id"": ""0.0-20.0-0.0-0.2"", ""uniqueId"": ""debugfPGMP:debug36Wqn"", ""condition"": 0, ""counterbalance"": 0}"
debugfPGMP:debug36Wqn,101,1595209137082,"{""rt"": null, ""stimulus"": ""<img src=\""/static/images/icons/Slide59.png\""></img>"", ""key_press"": null, ""test_part"": ""training"", ""next_elem"": ""Slide59"", ""trial_type"": ""html-keyboard-response"", ""trial_index"": 101, ""time_elapsed"": 192629, ""internal_node_id"": ""0.0-20.0-0.0-0.3"", ""uniqueId"": ""debugfPGMP:debug36Wqn"", ""condition"": 0, ""counterbalance"": 0}"
debugfPGMP:debug36Wqn,102,1595209137724,"{""rt"": 341, ""stimulus"": ""<img src=\""/static/images/icons/Slide59.png\""></img>"", ""key_press"": 32, ""test_part"": ""training"", ""next_elem"": ""Slide59"", ""trial_type"": ""html-keyboard-response"", ""trial_index"": 102, ""time_elapsed"": 193271, ""internal_node_id"": ""0.0-20.0-0.0-0.4"", ""uniqueId"": ""debugfPGMP:debug36Wqn"", ""condition"": 0, ""counterbalance"": 0}"
debugfPGMP:debug36Wqn,103,1595209141528,"{""rt"": null, ""stimulus"": ""Next sequence coming up.."", ""key_press"": null, ""test_part"": ""between_sequences"", ""trial_type"": ""html-keyboard-response"", ""trial_index"": 103, ""time_elapsed"": 197075, ""internal_node_id"": ""0.0-20.0-1.0"", ""uniqueId"": ""debugfPGMP:debug36Wqn"", ""condition"": 0, ""counterbalance"": 0}"
debugfPGMP:debug36Wqn,104,1595209142429,"{""rt"": null, ""stimulus"": ""<img src=\""/static/images/icons/Slide52.png\""></img>"", ""key_press"": null, ""test_part"": ""training"", ""next_elem"": ""Slide52"", ""trial_type"": ""html-keyboard-response"", ""trial_index"": 104, ""time_elapsed"": 197976, ""internal_node_id"": ""0.0-21.0-0.0-0.0"", ""uniqueId"": ""debugfPGMP:debug36Wqn"", ""condition"": 0, ""counterbalance"": 0}"
debugfPGMP:debug36Wqn,105,1595209143630,"{""rt"": null, ""stimulus"": ""<img src=\""/static/images/icons/Slide52.png\""></img>"", ""key_press"": null, ""test_part"": ""training"", ""next_elem"": ""Slide53"", ""trial_type"": ""html-keyboard-response"", ""trial_index"": 105, ""time_elapsed"": 199177, ""internal_node_id"": ""0.0-21.0-0.0-0.1"", ""uniqueId"": ""debugfPGMP:debug36Wqn"", ""condition"": 0, ""counterbalance"": 0}"
debugfPGMP:debug36Wqn,106,1595209144557,"{""rt"": 627, ""stimulus"": ""<img src=\""/static/images/icons/Slide53.png\""></img>"", ""key_press"": 32, ""test_part"": ""training"", ""next_elem"": ""Slide53"", ""trial_type"": ""html-keyboard-response"", ""trial_index"": 106, ""time_elapsed"": 200104, ""internal_node_id"": ""0.0-21.0-0.0-0.2"", ""uniqueId"": ""debugfPGMP:debug36Wqn"", ""condition"": 0, ""counterbalance"": 0}"
debugfPGMP:debug36Wqn,107,1595209148360,"{""rt"": null, ""stimulus"": ""Next sequence coming up.."", ""key_press"": null, ""test_part"": ""between_sequences"", ""trial_type"": ""html-keyboard-response"", ""trial_index"": 107, ""time_elapsed"": 203907, ""internal_node_id"": ""0.0-21.0-1.0"", ""uniqueId"": ""debugfPGMP:debug36Wqn"", ""condition"": 0, ""counterbalance"": 0}"
debugfPGMP:debug36Wqn,108,1595209149261,"{""rt"": null, ""stimulus"": ""<img src=\""/static/images/icons/Slide56.png\""></img>"", ""key_press"": null, ""test_part"": ""training"", ""next_elem"": ""Slide56"", ""trial_type"": ""html-keyboard-response"", ""trial_index"": 108, ""time_elapsed"": 204808, ""internal_node_id"": ""0.0-22.0-0.0-0.0"", ""uniqueId"": ""debugfPGMP:debug36Wqn"", ""condition"": 0, ""counterbalance"": 0}"
debugfPGMP:debug36Wqn,109,1595209150462,"{""rt"": null, ""stimulus"": ""<img src=\""/static/images/icons/Slide56.png\""></img>"", ""key_press"": null, ""test_part"": ""training"", ""next_elem"": ""Slide11"", ""trial_type"": ""html-keyboard-response"", ""trial_index"": 109, ""time_elapsed"": 206009, ""internal_node_id"": ""0.0-22.0-0.0-0.1"", ""uniqueId"": ""debugfPGMP:debug36Wqn"", ""condition"": 0, ""counterbalance"": 0}"
debugfPGMP:debug36Wqn,110,1595209151666,"{""rt"": null, ""stimulus"": ""<img src=\""/static/images/icons/Slide11.png\""></img>"", ""key_press"": null, ""test_part"": ""training"", ""next_elem"": ""Slide11"", ""trial_type"": ""html-keyboard-response"", ""trial_index"": 110, ""time_elapsed"": 207213, ""internal_node_id"": ""0.0-22.0-0.0-0.2"", ""uniqueId"": ""debugfPGMP:debug36Wqn"", ""condition"": 0, ""counterbalance"": 0}"
debugfPGMP:debug36Wqn,111,1595209152045,"{""rt"": 79, ""stimulus"": ""<img src=\""/static/images/icons/Slide11.png\""></img>"", ""key_press"": 32, ""test_part"": ""training"", ""next_elem"": ""Slide11"", ""trial_type"": ""html-keyboard-response"", ""trial_index"": 111, ""time_elapsed"": 207592, ""internal_node_id"": ""0.0-22.0-0.0-0.3"", ""uniqueId"": ""debugfPGMP:debug36Wqn"", ""condition"": 0, ""counterbalance"": 0}"
debugfPGMP:debug36Wqn,112,1595209155846,"{""rt"": null, ""stimulus"": ""Next sequence coming up.."", ""key_press"": null, ""test_part"": ""between_sequences"", ""trial_type"": ""html-keyboard-response"", ""trial_index"": 112, ""time_elapsed"": 211393, ""internal_node_id"": ""0.0-22.0-1.0"", ""uniqueId"": ""debugfPGMP:debug36Wqn"", ""condition"": 0, ""counterbalance"": 0}"
debugfPGMP:debug36Wqn,113,1595209156749,"{""rt"": null, ""stimulus"": ""<img src=\""/static/images/icons/Slide55.png\""></img>"", ""key_press"": null, ""test_part"": ""training"", ""next_elem"": ""Slide55"", ""trial_type"": ""html-keyboard-response"", ""trial_index"": 113, ""time_elapsed"": 212296, ""internal_node_id"": ""0.0-23.0-0.0-0.0"", ""uniqueId"": ""debugfPGMP:debug36Wqn"", ""condition"": 0, ""counterbalance"": 0}"
debugfPGMP:debug36Wqn,114,1595209157950,"{""rt"": null, ""stimulus"": ""<img src=\""/static/images/icons/Slide55.png\""></img>"", ""key_press"": null, ""test_part"": ""training"", ""next_elem"": ""Slide33"", ""trial_type"": ""html-keyboard-response"", ""trial_index"": 114, ""time_elapsed"": 213497, ""internal_node_id"": ""0.0-23.0-0.0-0.1"", ""uniqueId"": ""debugfPGMP:debug36Wqn"", ""condition"": 0, ""counterbalance"": 0}"
debugfPGMP:debug36Wqn,115,1595209159152,"{""rt"": null, ""stimulus"": ""<img src=\""/static/images/icons/Slide33.png\""></img>"", ""key_press"": null, ""test_part"": ""training"", ""next_elem"": ""Slide48"", ""trial_type"": ""html-keyboard-response"", ""trial_index"": 115, ""time_elapsed"": 214699, ""internal_node_id"": ""0.0-23.0-0.0-0.2"", ""uniqueId"": ""debugfPGMP:debug36Wqn"", ""condition"": 0, ""counterbalance"": 0}"
debugfPGMP:debug36Wqn,116,1595209159453,"{""rt"": 1, ""stimulus"": ""<img src=\""/static/images/icons/Slide48.png\""></img>"", ""key_press"": 32, ""test_part"": ""training"", ""next_elem"": ""Slide48"", ""trial_type"": ""html-keyboard-response"", ""trial_index"": 116, ""time_elapsed"": 215000, ""internal_node_id"": ""0.0-23.0-0.0-0.3"", ""uniqueId"": ""debugfPGMP:debug36Wqn"", ""condition"": 0, ""counterbalance"": 0}"
debugfPGMP:debug36Wqn,117,1595209163256,"{""rt"": null, ""stimulus"": ""Next sequence coming up.."", ""key_press"": null, ""test_part"": ""between_sequences"", ""trial_type"": ""html-keyboard-response"", ""trial_index"": 117, ""time_elapsed"": 218803, ""internal_node_id"": ""0.0-23.0-1.0"", ""uniqueId"": ""debugfPGMP:debug36Wqn"", ""condition"": 0, ""counterbalance"": 0}"
debugfPGMP:debug36Wqn,118,1595209164158,"{""rt"": null, ""stimulus"": ""<img src=\""/static/images/icons/Slide22.png\""></img>"", ""key_press"": null, ""test_part"": ""training"", ""next_elem"": ""Slide22"", ""trial_type"": ""html-keyboard-response"", ""trial_index"": 118, ""time_elapsed"": 219705, ""internal_node_id"": ""0.0-24.0-0.0-0.0"", ""uniqueId"": ""debugfPGMP:debug36Wqn"", ""condition"": 0, ""counterbalance"": 0}"
debugfPGMP:debug36Wqn,119,1595209164796,"{""rt"": 339, ""stimulus"": ""<img src=\""/static/images/icons/Slide22.png\""></img>"", ""key_press"": 32, ""test_part"": ""training"", ""next_elem"": ""Slide22"", ""trial_type"": ""html-keyboard-response"", ""trial_index"": 119, ""time_elapsed"": 220343, ""internal_node_id"": ""0.0-24.0-0.0-0.1"", ""uniqueId"": ""debugfPGMP:debug36Wqn"", ""condition"": 0, ""counterbalance"": 0}"
debugfPGMP:debug36Wqn,120,1595209168597,"{""rt"": null, ""stimulus"": ""Next sequence coming up.."", ""key_press"": null, ""test_part"": ""between_sequences"", ""trial_type"": ""html-keyboard-response"", ""trial_index"": 120, ""time_elapsed"": 224144, ""internal_node_id"": ""0.0-24.0-1.0"", ""uniqueId"": ""debugfPGMP:debug36Wqn"", ""condition"": 0, ""counterbalance"": 0}"
debugW3fIR:debugS6XLJ,0,1595208878596,"{""rt"": 3418.3000000193715, ""responses"": ""{\""Q0\"":\""5e1672ed53e846c65ba488d0\""}"", ""test_part"": ""id_check"", ""trial_type"": ""survey-text"", ""trial_index"": 0, ""time_elapsed"": 3435, ""internal_node_id"": ""0.0-0.0"", ""uniqueId"": ""debugW3fIR:debugS6XLJ"", ""condition"": 0, ""counterbalance"": 0}"
debugW3fIR:debugS6XLJ,1,1595208906911,"{""rt"": 28302.599999995437, ""responses"": ""{\""Q0\"":\""Circle, green\""}"", ""test_part"": ""botcheck"", ""trial_type"": ""survey-text"", ""trial_index"": 1, ""time_elapsed"": 31752, ""internal_node_id"": ""0.0-1.0"", ""uniqueId"": ""debugW3fIR:debugS6XLJ"", ""condition"": 0, ""counterbalance"": 0}"
debugW3fIR:debugS6XLJ,2,1595208914957,"{""rt"": 8030.399999988731, ""stimulus"": ""<p> <i> Thank you for participating in our experiment!  </i> </p><p> This session will last for 5min. <b> Please complete it in full screen mode. </b> </p><p> Do this experiment in one go, otherwise it will time out and we will </p><p> not be able to pay you. </p> "", ""button_pressed"": ""0"", ""test_part"": ""instructions"", ""trial_type"": ""html-button-response"", ""trial_index"": 2, ""time_elapsed"": 39797, ""internal_node_id"": ""0.0-2.0"", ""uniqueId"": ""debugW3fIR:debugS6XLJ"", ""condition"": 0, ""counterbalance"": 0}"
debugW3fIR:debugS6XLJ,3,1595208930966,"{""rt"": 15003.700000001118, ""stimulus"": ""<p> In each trial, you will see sequences of icons appearing one-by-one. </p><p> <b> Your task is very easy: Watch the icons closely, and for as long as you like.  </b> </p><p> Whenever you lose interest in the sequence, press space bar to see the next one. </p>"", ""button_pressed"": ""0"", ""test_part"": ""instructions"", ""trial_type"": ""html-button-response"", ""trial_index"": 3, ""time_elapsed"": 55807, ""internal_node_id"": ""0.0-3.0"", ""uniqueId"": ""debugW3fIR:debugS6XLJ"", ""condition"": 0, ""counterbalance"": 0}"
debugW3fIR:debugS6XLJ,4,1595208943109,"{""rt"": 11126.600000017788, ""stimulus"": ""<p> To re-iterate: Your task is simply to watch the icons, </p><p> and press the space bar whenever you lose interest in the sequence. </p><p> The experiment will end automatically after 5 minutes. </p><p> <b> Please, maintain your attention during the experiment. </b> </p><p> You may encounter little, unexpected tests during the experiment, </p><p>  to make sure you are paying attention. </p>"", ""button_pressed"": ""0"", ""test_part"": ""instructions"", ""trial_type"": ""html-button-response"", ""trial_index"": 4, ""time_elapsed"": 67946, ""internal_node_id"": ""0.0-4.0"", ""uniqueId"": ""debugW3fIR:debugS6XLJ"", ""condition"": 0, ""counterbalance"": 0}"
debugW3fIR:debugS6XLJ,5,1595208945021,"{""rt"": null, ""stimulus"": ""<img src=\""/static/images/icons/Slide56.png\""></img>"", ""key_press"": null, ""test_part"": ""training"", ""next_elem"": ""Slide56"", ""trial_type"": ""html-keyboard-response"", ""trial_index"": 5, ""time_elapsed"": 69862, ""internal_node_id"": ""0.0-5.0-0.0-0.0"", ""uniqueId"": ""debugW3fIR:debugS6XLJ"", ""condition"": 0, ""counterbalance"": 0}"
debugW3fIR:debugS6XLJ,6,1595208946224,"{""rt"": null, ""stimulus"": ""<img src=\""/static/images/icons/Slide56.png\""></img>"", ""key_press"": null, ""test_part"": ""training"", ""next_elem"": ""Slide11"", ""trial_type"": ""html-keyboard-response"", ""trial_index"": 6, ""time_elapsed"": 71065, ""internal_node_id"": ""0.0-5.0-0.0-0.1"", ""uniqueId"": ""debugW3fIR:debugS6XLJ"", ""condition"": 0, ""counterbalance"": 0}"
debugW3fIR:debugS6XLJ,7,1595208947427,"{""rt"": null, ""stimulus"": ""<img src=\""/static/images/icons/Slide11.png\""></img>"", ""key_press"": null, ""test_part"": ""training"", ""next_elem"": ""Slide11"", ""trial_type"": ""html-keyboard-response"", ""trial_index"": 7, ""time_elapsed"": 72268, ""internal_node_id"": ""0.0-5.0-0.0-0.2"", ""uniqueId"": ""debugW3fIR:debugS6XLJ"", ""condition"": 0, ""counterbalance"": 0}"
debugW3fIR:debugS6XLJ,8,1595208948629,"{""rt"": null, ""stimulus"": ""<img src=\""/static/images/icons/Slide11.png\""></img>"", ""key_press"": null, ""test_part"": ""training"", ""next_elem"": ""Slide11"", ""trial_type"": ""html-keyboard-response"", ""trial_index"": 8, ""time_elapsed"": 73470, ""internal_node_id"": ""0.0-5.0-0.0-0.3"", ""uniqueId"": ""debugW3fIR:debugS6XLJ"", ""condition"": 0, ""counterbalance"": 0}"
debugW3fIR:debugS6XLJ,9,1595208949834,"{""rt"": null, ""stimulus"": ""<img src=\""/static/images/icons/Slide11.png\""></img>"", ""key_press"": null, ""test_part"": ""training"", ""next_elem"": ""Slide11"", ""trial_type"": ""html-keyboard-response"", ""trial_index"": 9, ""time_elapsed"": 74674, ""internal_node_id"": ""0.0-5.0-0.0-0.4"", ""uniqueId"": ""debugW3fIR:debugS6XLJ"", ""condition"": 0, ""counterbalance"": 0}"
debugW3fIR:debugS6XLJ,10,1595208951043,"{""rt"": null, ""stimulus"": ""<img src=\""/static/images/icons/Slide11.png\""></img>"", ""key_press"": null, ""test_part"": ""training"", ""next_elem"": ""Slide11"", ""trial_type"": ""html-keyboard-response"", ""trial_index"": 10, ""time_elapsed"": 75883, ""internal_node_id"": ""0.0-5.0-0.0-0.5"", ""uniqueId"": ""debugW3fIR:debugS6XLJ"", ""condition"": 0, ""counterbalance"": 0}"
debugW3fIR:debugS6XLJ,11,1595208952249,"{""rt"": null, ""stimulus"": ""<img src=\""/static/images/icons/Slide11.png\""></img>"", ""key_press"": null, ""test_part"": ""training"", ""next_elem"": ""Slide11"", ""trial_type"": ""html-keyboard-response"", ""trial_index"": 11, ""time_elapsed"": 77089, ""internal_node_id"": ""0.0-5.0-0.0-0.6"", ""uniqueId"": ""debugW3fIR:debugS6XLJ"", ""condition"": 0, ""counterbalance"": 0}"
debugW3fIR:debugS6XLJ,12,1595208953455,"{""rt"": null, ""stimulus"": ""<img src=\""/static/images/icons/Slide11.png\""></img>"", ""key_press"": null, ""test_part"": ""training"", ""next_elem"": ""Slide6"", ""trial_type"": ""html-keyboard-response"", ""trial_index"": 12, ""time_elapsed"": 78296, ""internal_node_id"": ""0.0-5.0-0.0-0.7"", ""uniqueId"": ""debugW3fIR:debugS6XLJ"", ""condition"": 0, ""counterbalance"": 0}"
debugW3fIR:debugS6XLJ,13,1595208954660,"{""rt"": null, ""stimulus"": ""<img src=\""/static/images/icons/Slide6.png\""></img>"", ""key_press"": null, ""test_part"": ""training"", ""next_elem"": ""Slide11"", ""trial_type"": ""html-keyboard-response"", ""trial_index"": 13, ""time_elapsed"": 79500, ""internal_node_id"": ""0.0-5.0-0.0-0.8"", ""uniqueId"": ""debugW3fIR:debugS6XLJ"", ""condition"": 0, ""counterbalance"": 0}"
debugW3fIR:debugS6XLJ,14,1595208955867,"{""rt"": null, ""stimulus"": ""<img src=\""/static/images/icons/Slide11.png\""></img>"", ""key_press"": null, ""test_part"": ""training"", ""next_elem"": ""Slide6"", ""trial_type"": ""html-keyboard-response"", ""trial_index"": 14, ""time_elapsed"": 80707, ""internal_node_id"": ""0.0-5.0-0.0-0.9"", ""uniqueId"": ""debugW3fIR:debugS6XLJ"", ""condition"": 0, ""counterbalance"": 0}"
debugW3fIR:debugS6XLJ,15,1595208957073,"{""rt"": null, ""stimulus"": ""<img src=\""/static/images/icons/Slide6.png\""></img>"", ""key_press"": null, ""test_part"": ""training"", ""next_elem"": ""Slide6"", ""trial_type"": ""html-keyboard-response"", ""trial_index"": 15, ""time_elapsed"": 81913, ""internal_node_id"": ""0.0-5.0-0.0-0.10"", ""uniqueId"": ""debugW3fIR:debugS6XLJ"", ""condition"": 0, ""counterbalance"": 0}"
debugW3fIR:debugS6XLJ,16,1595208958279,"{""rt"": null, ""stimulus"": ""<img src=\""/static/images/icons/Slide6.png\""></img>"", ""key_press"": null, ""test_part"": ""training"", ""next_elem"": ""Slide11"", ""trial_type"": ""html-keyboard-response"", ""trial_index"": 16, ""time_elapsed"": 83119, ""internal_node_id"": ""0.0-5.0-0.0-0.11"", ""uniqueId"": ""debugW3fIR:debugS6XLJ"", ""condition"": 0, ""counterbalance"": 0}"
debugW3fIR:debugS6XLJ,17,1595208959486,"{""rt"": null, ""stimulus"": ""<img src=\""/static/images/icons/Slide11.png\""></img>"", ""key_press"": null, ""test_part"": ""training"", ""next_elem"": ""Slide6"", ""trial_type"": ""html-keyboard-response"", ""trial_index"": 17, ""time_elapsed"": 84327, ""internal_node_id"": ""0.0-5.0-0.0-0.12"", ""uniqueId"": ""debugW3fIR:debugS6XLJ"", ""condition"": 0, ""counterbalance"": 0}"
debugW3fIR:debugS6XLJ,18,1595208960688,"{""rt"": null, ""stimulus"": ""<img src=\""/static/images/icons/Slide6.png\""></img>"", ""key_press"": null, ""test_part"": ""training"", ""next_elem"": ""Slide11"", ""trial_type"": ""html-keyboard-response"", ""trial_index"": 18, ""time_elapsed"": 85529, ""internal_node_id"": ""0.0-5.0-0.0-0.13"", ""uniqueId"": ""debugW3fIR:debugS6XLJ"", ""condition"": 0, ""counterbalance"": 0}"
debugW3fIR:debugS6XLJ,19,1595208961895,"{""rt"": null, ""stimulus"": ""<img src=\""/static/images/icons/Slide11.png\""></img>"", ""key_press"": null, ""test_part"": ""training"", ""next_elem"": ""Slide56"", ""trial_type"": ""html-keyboard-response"", ""trial_index"": 19, ""time_elapsed"": 86736, ""internal_node_id"": ""0.0-5.0-0.0-0.14"", ""uniqueId"": ""debugW3fIR:debugS6XLJ"", ""condition"": 0, ""counterbalance"": 0}"
debugW3fIR:debugS6XLJ,20,1595208963105,"{""rt"": null, ""stimulus"": ""<img src=\""/static/images/icons/Slide56.png\""></img>"", ""key_press"": null, ""test_part"": ""training"", ""next_elem"": ""Slide11"", ""trial_type"": ""html-keyboard-response"", ""trial_index"": 20, ""time_elapsed"": 87946, ""internal_node_id"": ""0.0-5.0-0.0-0.15"", ""uniqueId"": ""debugW3fIR:debugS6XLJ"", ""condition"": 0, ""counterbalance"": 0}"
debugW3fIR:debugS6XLJ,21,1595208964307,"{""rt"": null, ""stimulus"": ""<img src=\""/static/images/icons/Slide11.png\""></img>"", ""key_press"": null, ""test_part"": ""training"", ""next_elem"": ""Slide6"", ""trial_type"": ""html-keyboard-response"", ""trial_index"": 21, ""time_elapsed"": 89148, ""internal_node_id"": ""0.0-5.0-0.0-0.16"", ""uniqueId"": ""debugW3fIR:debugS6XLJ"", ""condition"": 0, ""counterbalance"": 0}"
debugW3fIR:debugS6XLJ,22,1595208965510,"{""rt"": null, ""stimulus"": ""<img src=\""/static/images/icons/Slide6.png\""></img>"", ""key_press"": null, ""test_part"": ""training"", ""next_elem"": ""Slide11"", ""trial_type"": ""html-keyboard-response"", ""trial_index"": 22, ""time_elapsed"": 90350, ""internal_node_id"": ""0.0-5.0-0.0-0.17"", ""uniqueId"": ""debugW3fIR:debugS6XLJ"", ""condition"": 0, ""counterbalance"": 0}"
debugW3fIR:debugS6XLJ,23,1595208966714,"{""rt"": null, ""stimulus"": ""<img src=\""/static/images/icons/Slide11.png\""></img>"", ""key_press"": null, ""test_part"": ""training"", ""next_elem"": ""Slide11"", ""trial_type"": ""html-keyboard-response"", ""trial_index"": 23, ""time_elapsed"": 91554, ""internal_node_id"": ""0.0-5.0-0.0-0.18"", ""uniqueId"": ""debugW3fIR:debugS6XLJ"", ""condition"": 0, ""counterbalance"": 0}"
debugW3fIR:debugS6XLJ,24,1595208967919,"{""rt"": null, ""stimulus"": ""<img src=\""/static/images/icons/Slide11.png\""></img>"", ""key_press"": null, ""test_part"": ""training"", ""next_elem"": ""Slide6"", ""trial_type"": ""html-keyboard-response"", ""trial_index"": 24, ""time_elapsed"": 92760, ""internal_node_id"": ""0.0-5.0-0.0-0.19"", ""uniqueId"": ""debugW3fIR:debugS6XLJ"", ""condition"": 0, ""counterbalance"": 0}"
debugW3fIR:debugS6XLJ,25,1595208969121,"{""rt"": null, ""stimulus"": ""<img src=\""/static/images/icons/Slide6.png\""></img>"", ""key_press"": null, ""test_part"": ""training"", ""next_elem"": ""Slide56"", ""trial_type"": ""html-keyboard-response"", ""trial_index"": 25, ""time_elapsed"": 93962, ""internal_node_id"": ""0.0-5.0-0.0-0.20"", ""uniqueId"": ""debugW3fIR:debugS6XLJ"", ""condition"": 0, ""counterbalance"": 0}"
debugW3fIR:debugS6XLJ,26,1595208970325,"{""rt"": null, ""stimulus"": ""<img src=\""/static/images/icons/Slide56.png\""></img>"", ""key_press"": null, ""test_part"": ""training"", ""next_elem"": ""Slide11"", ""trial_type"": ""html-keyboard-response"", ""trial_index"": 26, ""time_elapsed"": 95166, ""internal_node_id"": ""0.0-5.0-0.0-0.21"", ""uniqueId"": ""debugW3fIR:debugS6XLJ"", ""condition"": 0, ""counterbalance"": 0}"
debugW3fIR:debugS6XLJ,27,1595208971528,"{""rt"": null, ""stimulus"": ""<img src=\""/static/images/icons/Slide11.png\""></img>"", ""key_press"": null, ""test_part"": ""training"", ""next_elem"": ""Slide6"", ""trial_type"": ""html-keyboard-response"", ""trial_index"": 27, ""time_elapsed"": 96369, ""internal_node_id"": ""0.0-5.0-0.0-0.22"", ""uniqueId"": ""debugW3fIR:debugS6XLJ"", ""condition"": 0, ""counterbalance"": 0}"
debugW3fIR:debugS6XLJ,28,1595208972730,"{""rt"": null, ""stimulus"": ""<img src=\""/static/images/icons/Slide6.png\""></img>"", ""key_press"": null, ""test_part"": ""training"", ""next_elem"": ""Slide11"", ""trial_type"": ""html-keyboard-response"", ""trial_index"": 28, ""time_elapsed"": 97571, ""internal_node_id"": ""0.0-5.0-0.0-0.23"", ""uniqueId"": ""debugW3fIR:debugS6XLJ"", ""condition"": 0, ""counterbalance"": 0}"
debugW3fIR:debugS6XLJ,29,1595208973938,"{""rt"": null, ""stimulus"": ""<img src=\""/static/images/icons/Slide11.png\""></img>"", ""key_press"": null, ""test_part"": ""training"", ""next_elem"": ""Slide56"", ""trial_type"": ""html-keyboard-response"", ""trial_index"": 29, ""time_elapsed"": 98778, ""internal_node_id"": ""0.0-5.0-0.0-0.24"", ""uniqueId"": ""debugW3fIR:debugS6XLJ"", ""condition"": 0, ""counterbalance"": 0}"
debugW3fIR:debugS6XLJ,30,1595208975165,"{""rt"": null, ""stimulus"": ""<img src=\""/static/images/icons/Slide56.png\""></img>"", ""key_press"": null, ""test_part"": ""training"", ""next_elem"": ""Slide56"", ""trial_type"": ""html-keyboard-response"", ""trial_index"": 30, ""time_elapsed"": 100006, ""internal_node_id"": ""0.0-5.0-0.0-0.25"", ""uniqueId"": ""debugW3fIR:debugS6XLJ"", ""condition"": 0, ""counterbalance"": 0}"
debugW3fIR:debugS6XLJ,31,1595208976371,"{""rt"": null, ""stimulus"": ""<img src=\""/static/images/icons/Slide56.png\""></img>"", ""key_press"": null, ""test_part"": ""training"", ""next_elem"": ""Slide11"", ""trial_type"": ""html-keyboard-response"", ""trial_index"": 31, ""time_elapsed"": 101211, ""internal_node_id"": ""0.0-5.0-0.0-0.26"", ""uniqueId"": ""debugW3fIR:debugS6XLJ"", ""condition"": 0, ""counterbalance"": 0}"
debugW3fIR:debugS6XLJ,32,1595208977578,"{""rt"": null, ""stimulus"": ""<img src=\""/static/images/icons/Slide11.png\""></img>"", ""key_press"": null, ""test_part"": ""training"", ""next_elem"": ""Slide6"", ""trial_type"": ""html-keyboard-response"", ""trial_index"": 32, ""time_elapsed"": 102419, ""internal_node_id"": ""0.0-5.0-0.0-0.27"", ""uniqueId"": ""debugW3fIR:debugS6XLJ"", ""condition"": 0, ""counterbalance"": 0}"
debugW3fIR:debugS6XLJ,33,1595208978782,"{""rt"": null, ""stimulus"": ""<img src=\""/static/images/icons/Slide6.png\""></img>"", ""key_press"": null, ""test_part"": ""training"", ""next_elem"": ""Slide56"", ""trial_type"": ""html-keyboard-response"", ""trial_index"": 33, ""time_elapsed"": 103622, ""internal_node_id"": ""0.0-5.0-0.0-0.28"", ""uniqueId"": ""debugW3fIR:debugS6XLJ"", ""condition"": 0, ""counterbalance"": 0}"
debugW3fIR:debugS6XLJ,34,1595208982593,"{""rt"": null, ""stimulus"": ""Next sequence coming up.."", ""key_press"": null, ""test_part"": ""between_sequences"", ""trial_type"": ""html-keyboard-response"", ""trial_index"": 34, ""time_elapsed"": 107432, ""internal_node_id"": ""0.0-5.0-1.0"", ""uniqueId"": ""debugW3fIR:debugS6XLJ"", ""condition"": 0, ""counterbalance"": 0}"
debugW3fIR:debugS6XLJ,35,1595208983499,"{""rt"": null, ""stimulus"": ""<img src=\""/static/images/icons/Slide16.png\""></img>"", ""key_press"": null, ""test_part"": ""training"", ""next_elem"": ""Slide16"", ""trial_type"": ""html-keyboard-response"", ""trial_index"": 35, ""time_elapsed"": 108339, ""internal_node_id"": ""0.0-6.0-0.0-0.0"", ""uniqueId"": ""debugW3fIR:debugS6XLJ"", ""condition"": 0, ""counterbalance"": 0}"
debugW3fIR:debugS6XLJ,36,1595208984705,"{""rt"": null, ""stimulus"": ""<img src=\""/static/images/icons/Slide16.png\""></img>"", ""key_press"": null, ""test_part"": ""training"", ""next_elem"": ""Slide12"", ""trial_type"": ""html-keyboard-response"", ""trial_index"": 36, ""time_elapsed"": 109545, ""internal_node_id"": ""0.0-6.0-0.0-0.1"", ""uniqueId"": ""debugW3fIR:debugS6XLJ"", ""condition"": 0, ""counterbalance"": 0}"
debugW3fIR:debugS6XLJ,37,1595208985911,"{""rt"": null, ""stimulus"": ""<img src=\""/static/images/icons/Slide12.png\""></img>"", ""key_press"": null, ""test_part"": ""training"", ""next_elem"": ""Slide40"", ""trial_type"": ""html-keyboard-response"", ""trial_index"": 37, ""time_elapsed"": 110751, ""internal_node_id"": ""0.0-6.0-0.0-0.2"", ""uniqueId"": ""debugW3fIR:debugS6XLJ"", ""condition"": 0, ""counterbalance"": 0}"
debugW3fIR:debugS6XLJ,38,1595208987116,"{""rt"": null, ""stimulus"": ""<img src=\""/static/images/icons/Slide40.png\""></img>"", ""key_press"": null, ""test_part"": ""training"", ""next_elem"": ""Slide16"", ""trial_type"": ""html-keyboard-response"", ""trial_index"": 38, ""time_elapsed"": 111956, ""internal_node_id"": ""0.0-6.0-0.0-0.3"", ""uniqueId"": ""debugW3fIR:debugS6XLJ"", ""condition"": 0, ""counterbalance"": 0}"
debugW3fIR:debugS6XLJ,39,1595208988323,"{""rt"": null, ""stimulus"": ""<img src=\""/static/images/icons/Slide16.png\""></img>"", ""key_press"": null, ""test_part"": ""training"", ""next_elem"": ""Slide40"", ""trial_type"": ""html-keyboard-response"", ""trial_index"": 39, ""time_elapsed"": 113163, ""internal_node_id"": ""0.0-6.0-0.0-0.4"", ""uniqueId"": ""debugW3fIR:debugS6XLJ"", ""condition"": 0, ""counterbalance"": 0}"
debugW3fIR:debugS6XLJ,40,1595208989528,"{""rt"": null, ""stimulus"": ""<img src=\""/static/images/icons/Slide40.png\""></img>"", ""key_press"": null, ""test_part"": ""training"", ""next_elem"": ""Slide12"", ""trial_type"": ""html-keyboard-response"", ""trial_index"": 40, ""time_elapsed"": 114368, ""internal_node_id"": ""0.0-6.0-0.0-0.5"", ""uniqueId"": ""debugW3fIR:debugS6XLJ"", ""condition"": 0, ""counterbalance"": 0}"
debugW3fIR:debugS6XLJ,41,1595208990733,"{""rt"": null, ""stimulus"": ""<img src=\""/static/images/icons/Slide12.png\""></img>"", ""key_press"": null, ""test_part"": ""training"", ""next_elem"": ""Slide40"", ""trial_type"": ""html-keyboard-response"", ""trial_index"": 41, ""time_elapsed"": 115573, ""internal_node_id"": ""0.0-6.0-0.0-0.6"", ""uniqueId"": ""debugW3fIR:debugS6XLJ"", ""condition"": 0, ""counterbalance"": 0}"
debugW3fIR:debugS6XLJ,42,1595208991939,"{""rt"": null, ""stimulus"": ""<img src=\""/static/images/icons/Slide40.png\""></img>"", ""key_press"": null, ""test_part"": ""training"", ""next_elem"": ""Slide12"", ""trial_type"": ""html-keyboard-response"", ""trial_index"": 42, ""time_elapsed"": 116779, ""internal_node_id"": ""0.0-6.0-0.0-0.7"", ""uniqueId"": ""debugW3fIR:debugS6XLJ"", ""condition"": 0, ""counterbalance"": 0}"
debugW3fIR:debugS6XLJ,43,1595208993145,"{""rt"": null, ""stimulus"": ""<img src=\""/static/images/icons/Slide12.png\""></img>"", ""key_press"": null, ""test_part"": ""training"", ""next_elem"": ""Slide16"", ""trial_type"": ""html-keyboard-response"", ""trial_index"": 43, ""time_elapsed"": 117985, ""internal_node_id"": ""0.0-6.0-0.0-0.8"", ""uniqueId"": ""debugW3fIR:debugS6XLJ"", ""condition"": 0, ""counterbalance"": 0}"
debugW3fIR:debugS6XLJ,44,1595208994351,"{""rt"": null, ""stimulus"": ""<img src=\""/static/images/icons/Slide16.png\""></img>"", ""key_press"": null, ""test_part"": ""training"", ""next_elem"": ""Slide12"", ""trial_type"": ""html-keyboard-response"", ""trial_index"": 44, ""time_elapsed"": 119191, ""internal_node_id"": ""0.0-6.0-0.0-0.9"", ""uniqueId"": ""debugW3fIR:debugS6XLJ"", ""condition"": 0, ""counterbalance"": 0}"
debugW3fIR:debugS6XLJ,45,1595208995558,"{""rt"": null, ""stimulus"": ""<img src=\""/static/images/icons/Slide12.png\""></img>"", ""key_press"": null, ""test_part"": ""training"", ""next_elem"": ""Slide40"", ""trial_type"": ""html-keyboard-response"", ""trial_index"": 45, ""time_elapsed"": 120398, ""internal_node_id"": ""0.0-6.0-0.0-0.10"", ""uniqueId"": ""debugW3fIR:debugS6XLJ"", ""condition"": 0, ""counterbalance"": 0}"
debugW3fIR:debugS6XLJ,46,1595208996764,"{""rt"": null, ""stimulus"": ""<img src=\""/static/images/icons/Slide40.png\""></img>"", ""key_press"": null, ""test_part"": ""training"", ""next_elem"": ""Slide16"", ""trial_type"": ""html-keyboard-response"", ""trial_index"": 46, ""time_elapsed"": 121605, ""internal_node_id"": ""0.0-6.0-0.0-0.11"", ""uniqueId"": ""debugW3fIR:debugS6XLJ"", ""condition"": 0, ""counterbalance"": 0}"
debugW3fIR:debugS6XLJ,47,1595208997969,"{""rt"": null, ""stimulus"": ""<img src=\""/static/images/icons/Slide16.png\""></img>"", ""key_press"": null, ""test_part"": ""training"", ""next_elem"": ""Slide40"", ""trial_type"": ""html-keyboard-response"", ""trial_index"": 47, ""time_elapsed"": 122810, ""internal_node_id"": ""0.0-6.0-0.0-0.12"", ""uniqueId"": ""debugW3fIR:debugS6XLJ"", ""condition"": 0, ""counterbalance"": 0}"
debugW3fIR:debugS6XLJ,48,1595208999174,"{""rt"": null, ""stimulus"": ""<img src=\""/static/images/icons/Slide40.png\""></img>"", ""key_press"": null, ""test_part"": ""training"", ""next_elem"": ""Slide12"", ""trial_type"": ""html-keyboard-response"", ""trial_index"": 48, ""time_elapsed"": 124014, ""internal_node_id"": ""0.0-6.0-0.0-0.13"", ""uniqueId"": ""debugW3fIR:debugS6XLJ"", ""condition"": 0, ""counterbalance"": 0}"
debugW3fIR:debugS6XLJ,49,1595209000381,"{""rt"": null, ""stimulus"": ""<img src=\""/static/images/icons/Slide12.png\""></img>"", ""key_press"": null, ""test_part"": ""training"", ""next_elem"": ""Slide40"", ""trial_type"": ""html-keyboard-response"", ""trial_index"": 49, ""time_elapsed"": 125221, ""internal_node_id"": ""0.0-6.0-0.0-0.14"", ""uniqueId"": ""debugW3fIR:debugS6XLJ"", ""condition"": 0, ""counterbalance"": 0}"
debugW3fIR:debugS6XLJ,50,1595209001588,"{""rt"": null, ""stimulus"": ""<img src=\""/static/images/icons/Slide40.png\""></img>"", ""key_press"": null, ""test_part"": ""training"", ""next_elem"": ""Slide12"", ""trial_type"": ""html-keyboard-response"", ""trial_index"": 50, ""time_elapsed"": 126428, ""internal_node_id"": ""0.0-6.0-0.0-0.15"", ""uniqueId"": ""debugW3fIR:debugS6XLJ"", ""condition"": 0, ""counterbalance"": 0}"
debugW3fIR:debugS6XLJ,51,1595209002794,"{""rt"": null, ""stimulus"": ""<img src=\""/static/images/icons/Slide12.png\""></img>"", ""key_press"": null, ""test_part"": ""training"", ""next_elem"": ""Slide12"", ""trial_type"": ""html-keyboard-response"", ""trial_index"": 51, ""time_elapsed"": 127634, ""internal_node_id"": ""0.0-6.0-0.0-0.16"", ""uniqueId"": ""debugW3fIR:debugS6XLJ"", ""condition"": 0, ""counterbalance"": 0}"
debugW3fIR:debugS6XLJ,52,1595209004002,"{""rt"": null, ""stimulus"": ""<img src=\""/static/images/icons/Slide12.png\""></img>"", ""key_press"": null, ""test_part"": ""training"", ""next_elem"": ""Slide16"", ""trial_type"": ""html-keyboard-response"", ""trial_index"": 52, ""time_elapsed"": 128841, ""internal_node_id"": ""0.0-6.0-0.0-0.17"", ""uniqueId"": ""debugW3fIR:debugS6XLJ"", ""condition"": 0, ""counterbalance"": 0}"
debugW3fIR:debugS6XLJ,53,1595209005207,"{""rt"": null, ""stimulus"": ""<img src=\""/static/images/icons/Slide16.png\""></img>"", ""key_press"": null, ""test_part"": ""training"", ""next_elem"": ""Slide40"", ""trial_type"": ""html-keyboard-response"", ""trial_index"": 53, ""time_elapsed"": 130047, ""internal_node_id"": ""0.0-6.0-0.0-0.18"", ""uniqueId"": ""debugW3fIR:debugS6XLJ"", ""condition"": 0, ""counterbalance"": 0}"
debugW3fIR:debugS6XLJ,54,1595209006414,"{""rt"": null, ""stimulus"": ""<img src=\""/static/images/icons/Slide40.png\""></img>"", ""key_press"": null, ""test_part"": ""training"", ""next_elem"": ""Slide12"", ""trial_type"": ""html-keyboard-response"", ""trial_index"": 54, ""time_elapsed"": 131253, ""internal_node_id"": ""0.0-6.0-0.0-0.19"", ""uniqueId"": ""debugW3fIR:debugS6XLJ"", ""condition"": 0, ""counterbalance"": 0}"
debugW3fIR:debugS6XLJ,55,1595209007622,"{""rt"": null, ""stimulus"": ""<img src=\""/static/images/icons/Slide12.png\""></img>"", ""key_press"": null, ""test_part"": ""training"", ""next_elem"": ""Slide40"", ""trial_type"": ""html-keyboard-response"", ""trial_index"": 55, ""time_elapsed"": 132461, ""internal_node_id"": ""0.0-6.0-0.0-0.20"", ""uniqueId"": ""debugW3fIR:debugS6XLJ"", ""condition"": 0, ""counterbalance"": 0}"
debugW3fIR:debugS6XLJ,56,1595209008827,"{""rt"": null, ""stimulus"": ""<img src=\""/static/images/icons/Slide40.png\""></img>"", ""key_press"": null, ""test_part"": ""training"", ""next_elem"": ""Slide40"", ""trial_type"": ""html-keyboard-response"", ""trial_index"": 56, ""time_elapsed"": 133667, ""internal_node_id"": ""0.0-6.0-0.0-0.21"", ""uniqueId"": ""debugW3fIR:debugS6XLJ"", ""condition"": 0, ""counterbalance"": 0}"
debugW3fIR:debugS6XLJ,57,1595209010032,"{""rt"": null, ""stimulus"": ""<img src=\""/static/images/icons/Slide40.png\""></img>"", ""key_press"": null, ""test_part"": ""training"", ""next_elem"": ""Slide40"", ""trial_type"": ""html-keyboard-response"", ""trial_index"": 57, ""time_elapsed"": 134872, ""internal_node_id"": ""0.0-6.0-0.0-0.22"", ""uniqueId"": ""debugW3fIR:debugS6XLJ"", ""condition"": 0, ""counterbalance"": 0}"
debugW3fIR:debugS6XLJ,58,1595209011237,"{""rt"": null, ""stimulus"": ""<img src=\""/static/images/icons/Slide40.png\""></img>"", ""key_press"": null, ""test_part"": ""training"", ""next_elem"": ""Slide12"", ""trial_type"": ""html-keyboard-response"", ""trial_index"": 58, ""time_elapsed"": 136078, ""internal_node_id"": ""0.0-6.0-0.0-0.23"", ""uniqueId"": ""debugW3fIR:debugS6XLJ"", ""condition"": 0, ""counterbalance"": 0}"
debugW3fIR:debugS6XLJ,59,1595209012445,"{""rt"": null, ""stimulus"": ""<img src=\""/static/images/icons/Slide12.png\""></img>"", ""key_press"": null, ""test_part"": ""training"", ""next_elem"": ""Slide12"", ""trial_type"": ""html-keyboard-response"", ""trial_index"": 59, ""time_elapsed"": 137285, ""internal_node_id"": ""0.0-6.0-0.0-0.24"", ""uniqueId"": ""debugW3fIR:debugS6XLJ"", ""condition"": 0, ""counterbalance"": 0}"
debugW3fIR:debugS6XLJ,60,1595209013653,"{""rt"": null, ""stimulus"": ""<img src=\""/static/images/icons/Slide12.png\""></img>"", ""key_press"": null, ""test_part"": ""training"", ""next_elem"": ""Slide16"", ""trial_type"": ""html-keyboard-response"", ""trial_index"": 60, ""time_elapsed"": 138492, ""internal_node_id"": ""0.0-6.0-0.0-0.25"", ""uniqueId"": ""debugW3fIR:debugS6XLJ"", ""condition"": 0, ""counterbalance"": 0}"
debugW3fIR:debugS6XLJ,61,1595209014858,"{""rt"": null, ""stimulus"": ""<img src=\""/static/images/icons/Slide16.png\""></img>"", ""key_press"": null, ""test_part"": ""training"", ""next_elem"": ""Slide16"", ""trial_type"": ""html-keyboard-response"", ""trial_index"": 61, ""time_elapsed"": 139698, ""internal_node_id"": ""0.0-6.0-0.0-0.26"", ""uniqueId"": ""debugW3fIR:debugS6XLJ"", ""condition"": 0, ""counterbalance"": 0}"
debugW3fIR:debugS6XLJ,62,1595209016064,"{""rt"": null, ""stimulus"": ""<img src=\""/static/images/icons/Slide16.png\""></img>"", ""key_press"": null, ""test_part"": ""training"", ""next_elem"": ""Slide16"", ""trial_type"": ""html-keyboard-response"", ""trial_index"": 62, ""time_elapsed"": 140904, ""internal_node_id"": ""0.0-6.0-0.0-0.27"", ""uniqueId"": ""debugW3fIR:debugS6XLJ"", ""condition"": 0, ""counterbalance"": 0}"
debugW3fIR:debugS6XLJ,63,1595209017271,"{""rt"": null, ""stimulus"": ""<img src=\""/static/images/icons/Slide16.png\""></img>"", ""key_press"": null, ""test_part"": ""training"", ""next_elem"": ""Slide16"", ""trial_type"": ""html-keyboard-response"", ""trial_index"": 63, ""time_elapsed"": 142111, ""internal_node_id"": ""0.0-6.0-0.0-0.28"", ""uniqueId"": ""debugW3fIR:debugS6XLJ"", ""condition"": 0, ""counterbalance"": 0}"
debugW3fIR:debugS6XLJ,64,1595209021082,"{""rt"": null, ""stimulus"": ""Next sequence coming up.."", ""key_press"": null, ""test_part"": ""between_sequences"", ""trial_type"": ""html-keyboard-response"", ""trial_index"": 64, ""time_elapsed"": 145920, ""internal_node_id"": ""0.0-6.0-1.0"", ""uniqueId"": ""debugW3fIR:debugS6XLJ"", ""condition"": 0, ""counterbalance"": 0}"
debugW3fIR:debugS6XLJ,65,1595209021990,"{""rt"": null, ""stimulus"": ""<img src=\""/static/images/icons/Slide44.png\""></img>"", ""key_press"": null, ""test_part"": ""training"", ""next_elem"": ""Slide49"", ""trial_type"": ""html-keyboard-response"", ""trial_index"": 65, ""time_elapsed"": 146830, ""internal_node_id"": ""0.0-7.0-0.0-0.0"", ""uniqueId"": ""debugW3fIR:debugS6XLJ"", ""condition"": 0, ""counterbalance"": 0}"
debugW3fIR:debugS6XLJ,66,1595209023196,"{""rt"": null, ""stimulus"": ""<img src=\""/static/images/icons/Slide49.png\""></img>"", ""key_press"": null, ""test_part"": ""training"", ""next_elem"": ""Slide44"", ""trial_type"": ""html-keyboard-response"", ""trial_index"": 66, ""time_elapsed"": 148036, ""internal_node_id"": ""0.0-7.0-0.0-0.1"", ""uniqueId"": ""debugW3fIR:debugS6XLJ"", ""condition"": 0, ""counterbalance"": 0}"
debugW3fIR:debugS6XLJ,67,1595209024403,"{""rt"": null, ""stimulus"": ""<img src=\""/static/images/icons/Slide44.png\""></img>"", ""key_press"": null, ""test_part"": ""training"", ""next_elem"": ""Slide44"", ""trial_type"": ""html-keyboard-response"", ""trial_index"": 67, ""time_elapsed"": 149243, ""internal_node_id"": ""0.0-7.0-0.0-0.2"", ""uniqueId"": ""debugW3fIR:debugS6XLJ"", ""condition"": 0, ""counterbalance"": 0}"
debugW3fIR:debugS6XLJ,68,1595209025621,"{""rt"": null, ""stimulus"": ""<img src=\""/static/images/icons/Slide44.png\""></img>"", ""key_press"": null, ""test_part"": ""training"", ""next_elem"": ""Slide44"", ""trial_type"": ""html-keyboard-response"", ""trial_index"": 68, ""time_elapsed"": 150450, ""internal_node_id"": ""0.0-7.0-0.0-0.3"", ""uniqueId"": ""debugW3fIR:debugS6XLJ"", ""condition"": 0, ""counterbalance"": 0}"
debugW3fIR:debugS6XLJ,69,1595209026828,"{""rt"": null, ""stimulus"": ""<img src=\""/static/images/icons/Slide44.png\""></img>"", ""key_press"": null, ""test_part"": ""training"", ""next_elem"": ""Slide44"", ""trial_type"": ""html-keyboard-response"", ""trial_index"": 69, ""time_elapsed"": 151669, ""internal_node_id"": ""0.0-7.0-0.0-0.4"", ""uniqueId"": ""debugW3fIR:debugS6XLJ"", ""condition"": 0, ""counterbalance"": 0}"
debugW3fIR:debugS6XLJ,70,1595209028036,"{""rt"": null, ""stimulus"": ""<img src=\""/static/images/icons/Slide44.png\""></img>"", ""key_press"": null, ""test_part"": ""training"", ""next_elem"": ""Slide44"", ""trial_type"": ""html-keyboard-response"", ""trial_index"": 70, ""time_elapsed"": 152877, ""internal_node_id"": ""0.0-7.0-0.0-0.5"", ""uniqueId"": ""debugW3fIR:debugS6XLJ"", ""condition"": 0, ""counterbalance"": 0}"
debugW3fIR:debugS6XLJ,71,1595209029241,"{""rt"": null, ""stimulus"": ""<img src=\""/static/images/icons/Slide44.png\""></img>"", ""key_press"": null, ""test_part"": ""training"", ""next_elem"": ""Slide44"", ""trial_type"": ""html-keyboard-response"", ""trial_index"": 71, ""time_elapsed"": 154081, ""internal_node_id"": ""0.0-7.0-0.0-0.6"", ""uniqueId"": ""debugW3fIR:debugS6XLJ"", ""condition"": 0, ""counterbalance"": 0}"
debugW3fIR:debugS6XLJ,72,1595209030447,"{""rt"": null, ""stimulus"": ""<img src=\""/static/images/icons/Slide44.png\""></img>"", ""key_press"": null, ""test_part"": ""training"", ""next_elem"": ""Slide46"", ""trial_type"": ""html-keyboard-response"", ""trial_index"": 72, ""time_elapsed"": 155288, ""internal_node_id"": ""0.0-7.0-0.0-0.7"", ""uniqueId"": ""debugW3fIR:debugS6XLJ"", ""condition"": 0, ""counterbalance"": 0}"
debugW3fIR:debugS6XLJ,73,1595209031653,"{""rt"": null, ""stimulus"": ""<img src=\""/static/images/icons/Slide46.png\""></img>"", ""key_press"": null, ""test_part"": ""training"", ""next_elem"": ""Slide49"", ""trial_type"": ""html-keyboard-response"", ""trial_index"": 73, ""time_elapsed"": 156494, ""internal_node_id"": ""0.0-7.0-0.0-0.8"", ""uniqueId"": ""debugW3fIR:debugS6XLJ"", ""condition"": 0, ""counterbalance"": 0}"
debugW3fIR:debugS6XLJ,74,1595209032861,"{""rt"": null, ""stimulus"": ""<img src=\""/static/images/icons/Slide49.png\""></img>"", ""key_press"": null, ""test_part"": ""training"", ""next_elem"": ""Slide49"", ""trial_type"": ""html-keyboard-response"", ""trial_index"": 74, ""time_elapsed"": 157701, ""internal_node_id"": ""0.0-7.0-0.0-0.9"", ""uniqueId"": ""debugW3fIR:debugS6XLJ"", ""condition"": 0, ""counterbalance"": 0}"
debugW3fIR:debugS6XLJ,75,1595209034066,"{""rt"": null, ""stimulus"": ""<img src=\""/static/images/icons/Slide49.png\""></img>"", ""key_press"": null, ""test_part"": ""training"", ""next_elem"": ""Slide49"", ""trial_type"": ""html-keyboard-response"", ""trial_index"": 75, ""time_elapsed"": 158907, ""internal_node_id"": ""0.0-7.0-0.0-0.10"", ""uniqueId"": ""debugW3fIR:debugS6XLJ"", ""condition"": 0, ""counterbalance"": 0}"
debugW3fIR:debugS6XLJ,76,1595209035269,"{""rt"": null, ""stimulus"": ""<img src=\""/static/images/icons/Slide49.png\""></img>"", ""key_press"": null, ""test_part"": ""training"", ""next_elem"": ""Slide46"", ""trial_type"": ""html-keyboard-response"", ""trial_index"": 76, ""time_elapsed"": 160110, ""internal_node_id"": ""0.0-7.0-0.0-0.11"", ""uniqueId"": ""debugW3fIR:debugS6XLJ"", ""condition"": 0, ""counterbalance"": 0}"
debugW3fIR:debugS6XLJ,77,1595209036475,"{""rt"": null, ""stimulus"": ""<img src=\""/static/images/icons/Slide46.png\""></img>"", ""key_press"": null, ""test_part"": ""training"", ""next_elem"": ""Slide44"", ""trial_type"": ""html-keyboard-response"", ""trial_index"": 77, ""time_elapsed"": 161316, ""internal_node_id"": ""0.0-7.0-0.0-0.12"", ""uniqueId"": ""debugW3fIR:debugS6XLJ"", ""condition"": 0, ""counterbalance"": 0}"
debugW3fIR:debugS6XLJ,78,1595209037682,"{""rt"": null, ""stimulus"": ""<img src=\""/static/images/icons/Slide44.png\""></img>"", ""key_press"": null, ""test_part"": ""training"", ""next_elem"": ""Slide49"", ""trial_type"": ""html-keyboard-response"", ""trial_index"": 78, ""time_elapsed"": 162522, ""internal_node_id"": ""0.0-7.0-0.0-0.13"", ""uniqueId"": ""debugW3fIR:debugS6XLJ"", ""condition"": 0, ""counterbalance"": 0}"
debugW3fIR:debugS6XLJ,79,1595209038886,"{""rt"": null, ""stimulus"": ""<img src=\""/static/images/icons/Slide49.png\""></img>"", ""key_press"": null, ""test_part"": ""training"", ""next_elem"": ""Slide49"", ""trial_type"": ""html-keyboard-response"", ""trial_index"": 79, ""time_elapsed"": 163727, ""internal_node_id"": ""0.0-7.0-0.0-0.14"", ""uniqueId"": ""debugW3fIR:debugS6XLJ"", ""condition"": 0, ""counterbalance"": 0}"
debugW3fIR:debugS6XLJ,80,1595209040093,"{""rt"": null, ""stimulus"": ""<img src=\""/static/images/icons/Slide49.png\""></img>"", ""key_press"": null, ""test_part"": ""training"", ""next_elem"": ""Slide49"", ""trial_type"": ""html-keyboard-response"", ""trial_index"": 80, ""time_elapsed"": 164934, ""internal_node_id"": ""0.0-7.0-0.0-0.15"", ""uniqueId"": ""debugW3fIR:debugS6XLJ"", ""condition"": 0, ""counterbalance"": 0}"
debugW3fIR:debugS6XLJ,81,1595209041300,"{""rt"": null, ""stimulus"": ""<img src=\""/static/images/icons/Slide49.png\""></img>"", ""key_press"": null, ""test_part"": ""training"", ""next_elem"": ""Slide46"", ""trial_type"": ""html-keyboard-response"", ""trial_index"": 81, ""time_elapsed"": 166140, ""internal_node_id"": ""0.0-7.0-0.0-0.16"", ""uniqueId"": ""debugW3fIR:debugS6XLJ"", ""condition"": 0, ""counterbalance"": 0}"
debugW3fIR:debugS6XLJ,82,1595209042505,"{""rt"": null, ""stimulus"": ""<img src=\""/static/images/icons/Slide46.png\""></img>"", ""key_press"": null, ""test_part"": ""training"", ""next_elem"": ""Slide44"", ""trial_type"": ""html-keyboard-response"", ""trial_index"": 82, ""time_elapsed"": 167346, ""internal_node_id"": ""0.0-7.0-0.0-0.17"", ""uniqueId"": ""debugW3fIR:debugS6XLJ"", ""condition"": 0, ""counterbalance"": 0}"
debugW3fIR:debugS6XLJ,83,1595209043710,"{""rt"": null, ""stimulus"": ""<img src=\""/static/images/icons/Slide44.png\""></img>"", ""key_press"": null, ""test_part"": ""training"", ""next_elem"": ""Slide46"", ""trial_type"": ""html-keyboard-response"", ""trial_index"": 83, ""time_elapsed"": 168551, ""internal_node_id"": ""0.0-7.0-0.0-0.18"", ""uniqueId"": ""debugW3fIR:debugS6XLJ"", ""condition"": 0, ""counterbalance"": 0}"
debugW3fIR:debugS6XLJ,84,1595209044916,"{""rt"": null, ""stimulus"": ""<img src=\""/static/images/icons/Slide46.png\""></img>"", ""key_press"": null, ""test_part"": ""training"", ""next_elem"": ""Slide49"", ""trial_type"": ""html-keyboard-response"", ""trial_index"": 84, ""time_elapsed"": 169756, ""internal_node_id"": ""0.0-7.0-0.0-0.19"", ""uniqueId"": ""debugW3fIR:debugS6XLJ"", ""condition"": 0, ""counterbalance"": 0}"
debugW3fIR:debugS6XLJ,85,1595209046121,"{""rt"": null, ""stimulus"": ""<img src=\""/static/images/icons/Slide49.png\""></img>"", ""key_press"": null, ""test_part"": ""training"", ""next_elem"": ""Slide44"", ""trial_type"": ""html-keyboard-response"", ""trial_index"": 85, ""time_elapsed"": 170961, ""internal_node_id"": ""0.0-7.0-0.0-0.20"", ""uniqueId"": ""debugW3fIR:debugS6XLJ"", ""condition"": 0, ""counterbalance"": 0}"
debugW3fIR:debugS6XLJ,86,1595209047327,"{""rt"": null, ""stimulus"": ""<img src=\""/static/images/icons/Slide44.png\""></img>"", ""key_press"": null, ""test_part"": ""training"", ""next_elem"": ""Slide49"", ""trial_type"": ""html-keyboard-response"", ""trial_index"": 86, ""time_elapsed"": 172168, ""internal_node_id"": ""0.0-7.0-0.0-0.21"", ""uniqueId"": ""debugW3fIR:debugS6XLJ"", ""condition"": 0, ""counterbalance"": 0}"
debugW3fIR:debugS6XLJ,87,1595209048533,"{""rt"": null, ""stimulus"": ""<img src=\""/static/images/icons/Slide49.png\""></img>"", ""key_press"": null, ""test_part"": ""training"", ""next_elem"": ""Slide44"", ""trial_type"": ""html-keyboard-response"", ""trial_index"": 87, ""time_elapsed"": 173374, ""internal_node_id"": ""0.0-7.0-0.0-0.22"", ""uniqueId"": ""debugW3fIR:debugS6XLJ"", ""condition"": 0, ""counterbalance"": 0}"
debugW3fIR:debugS6XLJ,88,1595209049739,"{""rt"": null, ""stimulus"": ""<img src=\""/static/images/icons/Slide44.png\""></img>"", ""key_press"": null, ""test_part"": ""training"", ""next_elem"": ""Slide46"", ""trial_type"": ""html-keyboard-response"", ""trial_index"": 88, ""time_elapsed"": 174579, ""internal_node_id"": ""0.0-7.0-0.0-0.23"", ""uniqueId"": ""debugW3fIR:debugS6XLJ"", ""condition"": 0, ""counterbalance"": 0}"
debugW3fIR:debugS6XLJ,89,1595209050945,"{""rt"": null, ""stimulus"": ""<img src=\""/static/images/icons/Slide46.png\""></img>"", ""key_press"": null, ""test_part"": ""training"", ""next_elem"": ""Slide44"", ""trial_type"": ""html-keyboard-response"", ""trial_index"": 89, ""time_elapsed"": 175786, ""internal_node_id"": ""0.0-7.0-0.0-0.24"", ""uniqueId"": ""debugW3fIR:debugS6XLJ"", ""condition"": 0, ""counterbalance"": 0}"
debugW3fIR:debugS6XLJ,90,1595209052151,"{""rt"": null, ""stimulus"": ""<img src=\""/static/images/icons/Slide44.png\""></img>"", ""key_press"": null, ""test_part"": ""training"", ""next_elem"": ""Slide44"", ""trial_type"": ""html-keyboard-response"", ""trial_index"": 90, ""time_elapsed"": 176991, ""internal_node_id"": ""0.0-7.0-0.0-0.25"", ""uniqueId"": ""debugW3fIR:debugS6XLJ"", ""condition"": 0, ""counterbalance"": 0}"
debugW3fIR:debugS6XLJ,91,1595209053356,"{""rt"": null, ""stimulus"": ""<img src=\""/static/images/icons/Slide44.png\""></img>"", ""key_press"": null, ""test_part"": ""training"", ""next_elem"": ""Slide46"", ""trial_type"": ""html-keyboard-response"", ""trial_index"": 91, ""time_elapsed"": 178197, ""internal_node_id"": ""0.0-7.0-0.0-0.26"", ""uniqueId"": ""debugW3fIR:debugS6XLJ"", ""condition"": 0, ""counterbalance"": 0}"
debugW3fIR:debugS6XLJ,92,1595209054566,"{""rt"": null, ""stimulus"": ""<img src=\""/static/images/icons/Slide46.png\""></img>"", ""key_press"": null, ""test_part"": ""training"", ""next_elem"": ""Slide46"", ""trial_type"": ""html-keyboard-response"", ""trial_index"": 92, ""time_elapsed"": 179406, ""internal_node_id"": ""0.0-7.0-0.0-0.27"", ""uniqueId"": ""debugW3fIR:debugS6XLJ"", ""condition"": 0, ""counterbalance"": 0}"
debugW3fIR:debugS6XLJ,93,1595209055774,"{""rt"": null, ""stimulus"": ""<img src=\""/static/images/icons/Slide46.png\""></img>"", ""key_press"": null, ""test_part"": ""training"", ""next_elem"": ""Slide46"", ""trial_type"": ""html-keyboard-response"", ""trial_index"": 93, ""time_elapsed"": 180614, ""internal_node_id"": ""0.0-7.0-0.0-0.28"", ""uniqueId"": ""debugW3fIR:debugS6XLJ"", ""condition"": 0, ""counterbalance"": 0}"
debugW3fIR:debugS6XLJ,94,1595209059579,"{""rt"": null, ""stimulus"": ""Next sequence coming up.."", ""key_press"": null, ""test_part"": ""between_sequences"", ""trial_type"": ""html-keyboard-response"", ""trial_index"": 94, ""time_elapsed"": 184419, ""internal_node_id"": ""0.0-7.0-1.0"", ""uniqueId"": ""debugW3fIR:debugS6XLJ"", ""condition"": 0, ""counterbalance"": 0}"
debugW3fIR:debugS6XLJ,95,1595209060483,"{""rt"": null, ""stimulus"": ""<img src=\""/static/images/icons/Slide35.png\""></img>"", ""key_press"": null, ""test_part"": ""training"", ""next_elem"": ""Slide35"", ""trial_type"": ""html-keyboard-response"", ""trial_index"": 95, ""time_elapsed"": 185324, ""internal_node_id"": ""0.0-8.0-0.0-0.0"", ""uniqueId"": ""debugW3fIR:debugS6XLJ"", ""condition"": 0, ""counterbalance"": 0}"
debugW3fIR:debugS6XLJ,96,1595209061687,"{""rt"": null, ""stimulus"": ""<img src=\""/static/images/icons/Slide35.png\""></img>"", ""key_press"": null, ""test_part"": ""training"", ""next_elem"": ""Slide35"", ""trial_type"": ""html-keyboard-response"", ""trial_index"": 96, ""time_elapsed"": 186528, ""internal_node_id"": ""0.0-8.0-0.0-0.1"", ""uniqueId"": ""debugW3fIR:debugS6XLJ"", ""condition"": 0, ""counterbalance"": 0}"
debugW3fIR:debugS6XLJ,97,1595209062893,"{""rt"": null, ""stimulus"": ""<img src=\""/static/images/icons/Slide35.png\""></img>"", ""key_press"": null, ""test_part"": ""training"", ""next_elem"": ""Slide35"", ""trial_type"": ""html-keyboard-response"", ""trial_index"": 97, ""time_elapsed"": 187733, ""internal_node_id"": ""0.0-8.0-0.0-0.2"", ""uniqueId"": ""debugW3fIR:debugS6XLJ"", ""condition"": 0, ""counterbalance"": 0}"
debugW3fIR:debugS6XLJ,98,1595209064099,"{""rt"": null, ""stimulus"": ""<img src=\""/static/images/icons/Slide35.png\""></img>"", ""key_press"": null, ""test_part"": ""training"", ""next_elem"": ""Slide35"", ""trial_type"": ""html-keyboard-response"", ""trial_index"": 98, ""time_elapsed"": 188939, ""internal_node_id"": ""0.0-8.0-0.0-0.3"", ""uniqueId"": ""debugW3fIR:debugS6XLJ"", ""condition"": 0, ""counterbalance"": 0}"
debugW3fIR:debugS6XLJ,99,1595209065304,"{""rt"": null, ""stimulus"": ""<img src=\""/static/images/icons/Slide35.png\""></img>"", ""key_press"": null, ""test_part"": ""training"", ""next_elem"": ""Slide35"", ""trial_type"": ""html-keyboard-response"", ""trial_index"": 99, ""time_elapsed"": 190145, ""internal_node_id"": ""0.0-8.0-0.0-0.4"", ""uniqueId"": ""debugW3fIR:debugS6XLJ"", ""condition"": 0, ""counterbalance"": 0}"
debugW3fIR:debugS6XLJ,100,1595209066509,"{""rt"": null, ""stimulus"": ""<img src=\""/static/images/icons/Slide35.png\""></img>"", ""key_press"": null, ""test_part"": ""training"", ""next_elem"": ""Slide35"", ""trial_type"": ""html-keyboard-response"", ""trial_index"": 100, ""time_elapsed"": 191350, ""internal_node_id"": ""0.0-8.0-0.0-0.5"", ""uniqueId"": ""debugW3fIR:debugS6XLJ"", ""condition"": 0, ""counterbalance"": 0}"
debugW3fIR:debugS6XLJ,101,1595209067714,"{""rt"": null, ""stimulus"": ""<img src=\""/static/images/icons/Slide35.png\""></img>"", ""key_press"": null, ""test_part"": ""training"", ""next_elem"": ""Slide35"", ""trial_type"": ""html-keyboard-response"", ""trial_index"": 101, ""time_elapsed"": 192555, ""internal_node_id"": ""0.0-8.0-0.0-0.6"", ""uniqueId"": ""debugW3fIR:debugS6XLJ"", ""condition"": 0, ""counterbalance"": 0}"
debugW3fIR:debugS6XLJ,102,1595209068923,"{""rt"": null, ""stimulus"": ""<img src=\""/static/images/icons/Slide35.png\""></img>"", ""key_press"": null, ""test_part"": ""training"", ""next_elem"": ""Slide35"", ""trial_type"": ""html-keyboard-response"", ""trial_index"": 102, ""time_elapsed"": 193764, ""internal_node_id"": ""0.0-8.0-0.0-0.7"", ""uniqueId"": ""debugW3fIR:debugS6XLJ"", ""condition"": 0, ""counterbalance"": 0}"
debugW3fIR:debugS6XLJ,103,1595209070130,"{""rt"": null, ""stimulus"": ""<img src=\""/static/images/icons/Slide35.png\""></img>"", ""key_press"": null, ""test_part"": ""training"", ""next_elem"": ""Slide35"", ""trial_type"": ""html-keyboard-response"", ""trial_index"": 103, ""time_elapsed"": 194970, ""internal_node_id"": ""0.0-8.0-0.0-0.8"", ""uniqueId"": ""debugW3fIR:debugS6XLJ"", ""condition"": 0, ""counterbalance"": 0}"
debugW3fIR:debugS6XLJ,104,1595209071337,"{""rt"": null, ""stimulus"": ""<img src=\""/static/images/icons/Slide35.png\""></img>"", ""key_press"": null, ""test_part"": ""training"", ""next_elem"": ""Slide35"", ""trial_type"": ""html-keyboard-response"", ""trial_index"": 104, ""time_elapsed"": 196177, ""internal_node_id"": ""0.0-8.0-0.0-0.9"", ""uniqueId"": ""debugW3fIR:debugS6XLJ"", ""condition"": 0, ""counterbalance"": 0}"
debugW3fIR:debugS6XLJ,105,1595209072544,"{""rt"": null, ""stimulus"": ""<img src=\""/static/images/icons/Slide35.png\""></img>"", ""key_press"": null, ""test_part"": ""training"", ""next_elem"": ""Slide35"", ""trial_type"": ""html-keyboard-response"", ""trial_index"": 105, ""time_elapsed"": 197385, ""internal_node_id"": ""0.0-8.0-0.0-0.10"", ""uniqueId"": ""debugW3fIR:debugS6XLJ"", ""condition"": 0, ""counterbalance"": 0}"
debugW3fIR:debugS6XLJ,106,1595209073751,"{""rt"": null, ""stimulus"": ""<img src=\""/static/images/icons/Slide35.png\""></img>"", ""key_press"": null, ""test_part"": ""training"", ""next_elem"": ""Slide35"", ""trial_type"": ""html-keyboard-response"", ""trial_index"": 106, ""time_elapsed"": 198592, ""internal_node_id"": ""0.0-8.0-0.0-0.11"", ""uniqueId"": ""debugW3fIR:debugS6XLJ"", ""condition"": 0, ""counterbalance"": 0}"
debugW3fIR:debugS6XLJ,107,1595209074958,"{""rt"": null, ""stimulus"": ""<img src=\""/static/images/icons/Slide35.png\""></img>"", ""key_press"": null, ""test_part"": ""training"", ""next_elem"": ""Slide35"", ""trial_type"": ""html-keyboard-response"", ""trial_index"": 107, ""time_elapsed"": 199799, ""internal_node_id"": ""0.0-8.0-0.0-0.12"", ""uniqueId"": ""debugW3fIR:debugS6XLJ"", ""condition"": 0, ""counterbalance"": 0}"
debugW3fIR:debugS6XLJ,108,1595209076166,"{""rt"": null, ""stimulus"": ""<img src=\""/static/images/icons/Slide35.png\""></img>"", ""key_press"": null, ""test_part"": ""training"", ""next_elem"": ""Slide35"", ""trial_type"": ""html-keyboard-response"", ""trial_index"": 108, ""time_elapsed"": 201007, ""internal_node_id"": ""0.0-8.0-0.0-0.13"", ""uniqueId"": ""debugW3fIR:debugS6XLJ"", ""condition"": 0, ""counterbalance"": 0}"
debugW3fIR:debugS6XLJ,109,1595209077374,"{""rt"": null, ""stimulus"": ""<img src=\""/static/images/icons/Slide35.png\""></img>"", ""key_press"": null, ""test_part"": ""training"", ""next_elem"": ""Slide35"", ""trial_type"": ""html-keyboard-response"", ""trial_index"": 109, ""time_elapsed"": 202215, ""internal_node_id"": ""0.0-8.0-0.0-0.14"", ""uniqueId"": ""debugW3fIR:debugS6XLJ"", ""condition"": 0, ""counterbalance"": 0}"
debugW3fIR:debugS6XLJ,110,1595209078579,"{""rt"": null, ""stimulus"": ""<img src=\""/static/images/icons/Slide35.png\""></img>"", ""key_press"": null, ""test_part"": ""training"", ""next_elem"": ""Slide35"", ""trial_type"": ""html-keyboard-response"", ""trial_index"": 110, ""time_elapsed"": 203420, ""internal_node_id"": ""0.0-8.0-0.0-0.15"", ""uniqueId"": ""debugW3fIR:debugS6XLJ"", ""condition"": 0, ""counterbalance"": 0}"
debugW3fIR:debugS6XLJ,111,1595209079782,"{""rt"": null, ""stimulus"": ""<img src=\""/static/images/icons/Slide35.png\""></img>"", ""key_press"": null, ""test_part"": ""training"", ""next_elem"": ""Slide7"", ""trial_type"": ""html-keyboard-response"", ""trial_index"": 111, ""time_elapsed"": 204623, ""internal_node_id"": ""0.0-8.0-0.0-0.16"", ""uniqueId"": ""debugW3fIR:debugS6XLJ"", ""condition"": 0, ""counterbalance"": 0}"
debugW3fIR:debugS6XLJ,112,1595209080988,"{""rt"": null, ""stimulus"": ""<img src=\""/static/images/icons/Slide7.png\""></img>"", ""key_press"": null, ""test_part"": ""training"", ""next_elem"": ""Slide2"", ""trial_type"": ""html-keyboard-response"", ""trial_index"": 112, ""time_elapsed"": 205829, ""internal_node_id"": ""0.0-8.0-0.0-0.17"", ""uniqueId"": ""debugW3fIR:debugS6XLJ"", ""condition"": 0, ""counterbalance"": 0}"
debugW3fIR:debugS6XLJ,113,1595209082194,"{""rt"": null, ""stimulus"": ""<img src=\""/static/images/icons/Slide2.png\""></img>"", ""key_press"": null, ""test_part"": ""training"", ""next_elem"": ""Slide2"", ""trial_type"": ""html-keyboard-response"", ""trial_index"": 113, ""time_elapsed"": 207034, ""internal_node_id"": ""0.0-8.0-0.0-0.18"", ""uniqueId"": ""debugW3fIR:debugS6XLJ"", ""condition"": 0, ""counterbalance"": 0}"
