A1O5IL3N3G3WIL:3YOH7BII0D4NJ0T452UUKAAQ0I8KV9,0,1580527955047,"{""rt"": 13781.014999840409, ""responses"": ""{\""Q0\"":\""green circle\""}"", ""test_part"": ""botcheck"", ""trial_type"": ""survey-text"", ""trial_index"": 0, ""time_elapsed"": 13804, ""internal_node_id"": ""0.0-0.0"", ""uniqueId"": ""A1O5IL3N3G3WIL:3YOH7BII0D4NJ0T452UUKAAQ0I8KV9"", ""condition"": 0, ""counterbalance"": 0}"
A1O5IL3N3G3WIL:3YOH7BII0D4NJ0T452UUKAAQ0I8KV9,1,1580527959716,"{""rt"": 4666.334999958053, ""stimulus"": ""<p> <i> This session will last for 10min. Please complete it in full screen mode. </p><p> Do this experiment in one go, otherwise it will time out and we will </p><p> not be able to pay you. </i> </p> "", ""button_pressed"": ""0"", ""test_part"": ""instructions"", ""trial_type"": ""html-button-response"", ""trial_index"": 1, ""time_elapsed"": 18473, ""internal_node_id"": ""0.0-1.0"", ""uniqueId"": ""A1O5IL3N3G3WIL:3YOH7BII0D4NJ0T452UUKAAQ0I8KV9"", ""condition"": 0, ""counterbalance"": 0}"
A1O5IL3N3G3WIL:3YOH7BII0D4NJ0T452UUKAAQ0I8KV9,2,1580528177951,"{""rt"": 217232.2600001935, ""stimulus"": ""<p> In each trial, you will see some letters (A, B or C) appearing one-by-one. </p><p> <b> Your task is to stop the sequence when 1) you feel like you can predict the next letter <i>or</i> </p><p> 2) you feel like there is no structure and the sequence is unpredictable. </b> </p><p> Some sequences you will see have some structure, and some don't, so they will be more or less predictable. </p><p> <br> Let us practice a bit before we move on to the actual experiment. </p> <br />"", ""button_pressed"": ""0"", ""test_part"": ""instructions"", ""trial_type"": ""html-button-response"", ""trial_index"": 2, ""time_elapsed"": 236708, ""internal_node_id"": ""0.0-2.0"", ""uniqueId"": ""A1O5IL3N3G3WIL:3YOH7BII0D4NJ0T452UUKAAQ0I8KV9"", ""condition"": 0, ""counterbalance"": 0}"
A1O5IL3N3G3WIL:3YOH7BII0D4NJ0T452UUKAAQ0I8KV9,3,1580528428446,"{""rt"": 249491.70999997295, ""stimulus"": ""<p> Remember: Some sequences will be very predictable, some will be somewhat predictable, </p><p> while others will have no structure at all.</p> <p> <b> Stop the sequence by pressing the spacebar </b> </p><p> whenever you feel you can predict the next letter, or you decide that the sequence is unpredictable. </p><p> When you stop the sequence, you will be asked to predict the next letter, and you will receive feedback. </p><p> You can also say that the sequence was unpredictable by selecting 'Equally likely'. In this case you will receive no feedback. </p><p> <br> Let us practice. </br> <p>"", ""button_pressed"": ""0"", ""test_part"": ""instructions"", ""trial_type"": ""html-button-response"", ""trial_index"": 3, ""time_elapsed"": 487203, ""internal_node_id"": ""0.0-3.0"", ""uniqueId"": ""A1O5IL3N3G3WIL:3YOH7BII0D4NJ0T452UUKAAQ0I8KV9"", ""condition"": 0, ""counterbalance"": 0}"
A1O5IL3N3G3WIL:3YOH7BII0D4NJ0T452UUKAAQ0I8KV9,4,1580528430250,"{""rt"": null, ""stimulus"": ""<div style=\""font-size:65px;\"">  <p> </p>A</div>"", ""key_press"": null, ""test_part"": ""training"", ""next_elem"": ""B"", ""trial_type"": ""html-keyboard-response"", ""trial_index"": 4, ""time_elapsed"": 489007, ""internal_node_id"": ""0.0-4.0-0.0-0.0"", ""uniqueId"": ""A1O5IL3N3G3WIL:3YOH7BII0D4NJ0T452UUKAAQ0I8KV9"", ""condition"": 0, ""counterbalance"": 0}"
A1O5IL3N3G3WIL:3YOH7BII0D4NJ0T452UUKAAQ0I8KV9,5,1580528431355,"{""rt"": null, ""stimulus"": ""<div style=\""font-size:65px;\"">  <p> </p>B</div>"", ""key_press"": null, ""test_part"": ""training"", ""next_elem"": ""C"", ""trial_type"": ""html-keyboard-response"", ""trial_index"": 5, ""time_elapsed"": 490112, ""internal_node_id"": ""0.0-4.0-0.0-0.1"", ""uniqueId"": ""A1O5IL3N3G3WIL:3YOH7BII0D4NJ0T452UUKAAQ0I8KV9"", ""condition"": 0, ""counterbalance"": 0}"
A1O5IL3N3G3WIL:3YOH7BII0D4NJ0T452UUKAAQ0I8KV9,6,1580528432458,"{""rt"": null, ""stimulus"": ""<div style=\""font-size:65px;\"">  <p> </p>C</div>"", ""key_press"": null, ""test_part"": ""training"", ""next_elem"": ""A"", ""trial_type"": ""html-keyboard-response"", ""trial_index"": 6, ""time_elapsed"": 491215, ""internal_node_id"": ""0.0-4.0-0.0-0.2"", ""uniqueId"": ""A1O5IL3N3G3WIL:3YOH7BII0D4NJ0T452UUKAAQ0I8KV9"", ""condition"": 0, ""counterbalance"": 0}"
A1O5IL3N3G3WIL:3YOH7BII0D4NJ0T452UUKAAQ0I8KV9,7,1580528433561,"{""rt"": null, ""stimulus"": ""<div style=\""font-size:65px;\"">  <p> </p>A</div>"", ""key_press"": null, ""test_part"": ""training"", ""next_elem"": ""B"", ""trial_type"": ""html-keyboard-response"", ""trial_index"": 7, ""time_elapsed"": 492318, ""internal_node_id"": ""0.0-4.0-0.0-0.3"", ""uniqueId"": ""A1O5IL3N3G3WIL:3YOH7BII0D4NJ0T452UUKAAQ0I8KV9"", ""condition"": 0, ""counterbalance"": 0}"
A1O5IL3N3G3WIL:3YOH7BII0D4NJ0T452UUKAAQ0I8KV9,8,1580528434665,"{""rt"": null, ""stimulus"": ""<div style=\""font-size:65px;\"">  <p> </p>B</div>"", ""key_press"": null, ""test_part"": ""training"", ""next_elem"": ""C"", ""trial_type"": ""html-keyboard-response"", ""trial_index"": 8, ""time_elapsed"": 493421, ""internal_node_id"": ""0.0-4.0-0.0-0.4"", ""uniqueId"": ""A1O5IL3N3G3WIL:3YOH7BII0D4NJ0T452UUKAAQ0I8KV9"", ""condition"": 0, ""counterbalance"": 0}"
A1O5IL3N3G3WIL:3YOH7BII0D4NJ0T452UUKAAQ0I8KV9,9,1580528435767,"{""rt"": null, ""stimulus"": ""<div style=\""font-size:65px;\"">  <p> </p>C</div>"", ""key_press"": null, ""test_part"": ""training"", ""next_elem"": ""A"", ""trial_type"": ""html-keyboard-response"", ""trial_index"": 9, ""time_elapsed"": 494523, ""internal_node_id"": ""0.0-4.0-0.0-0.5"", ""uniqueId"": ""A1O5IL3N3G3WIL:3YOH7BII0D4NJ0T452UUKAAQ0I8KV9"", ""condition"": 0, ""counterbalance"": 0}"
A1O5IL3N3G3WIL:3YOH7BII0D4NJ0T452UUKAAQ0I8KV9,10,1580528436868,"{""rt"": null, ""stimulus"": ""<div style=\""font-size:65px;\"">  <p> </p>A</div>"", ""key_press"": null, ""test_part"": ""training"", ""next_elem"": ""B"", ""trial_type"": ""html-keyboard-response"", ""trial_index"": 10, ""time_elapsed"": 495625, ""internal_node_id"": ""0.0-4.0-0.0-0.6"", ""uniqueId"": ""A1O5IL3N3G3WIL:3YOH7BII0D4NJ0T452UUKAAQ0I8KV9"", ""condition"": 0, ""counterbalance"": 0}"
A1O5IL3N3G3WIL:3YOH7BII0D4NJ0T452UUKAAQ0I8KV9,11,1580528437972,"{""rt"": null, ""stimulus"": ""<div style=\""font-size:65px;\"">  <p> </p>B</div>"", ""key_press"": null, ""test_part"": ""training"", ""next_elem"": ""C"", ""trial_type"": ""html-keyboard-response"", ""trial_index"": 11, ""time_elapsed"": 496729, ""internal_node_id"": ""0.0-4.0-0.0-0.7"", ""uniqueId"": ""A1O5IL3N3G3WIL:3YOH7BII0D4NJ0T452UUKAAQ0I8KV9"", ""condition"": 0, ""counterbalance"": 0}"
A1O5IL3N3G3WIL:3YOH7BII0D4NJ0T452UUKAAQ0I8KV9,12,1580528438622,"{""rt"": 349.0500000771135, ""stimulus"": ""<div style=\""font-size:65px;\"">  <p> </p>C</div>"", ""key_press"": 32, ""test_part"": ""training"", ""next_elem"": ""A"", ""trial_type"": ""html-keyboard-response"", ""trial_index"": 12, ""time_elapsed"": 497379, ""internal_node_id"": ""0.0-4.0-0.0-0.8"", ""uniqueId"": ""A1O5IL3N3G3WIL:3YOH7BII0D4NJ0T452UUKAAQ0I8KV9"", ""condition"": 0, ""counterbalance"": 0}"
A1O5IL3N3G3WIL:3YOH7BII0D4NJ0T452UUKAAQ0I8KV9,13,1580528443246,"{""rt"": 4320.970000000671, ""responses"": ""{\""Q0\"":\""A\""}"", ""question_order"": ""[0]"", ""test_part"": ""prediction"", ""trial_type"": ""survey-multi-choice"", ""trial_index"": 13, ""time_elapsed"": 502003, ""internal_node_id"": ""0.0-4.0-1.0"", ""uniqueId"": ""A1O5IL3N3G3WIL:3YOH7BII0D4NJ0T452UUKAAQ0I8KV9"", ""condition"": 0, ""counterbalance"": 0}"
A1O5IL3N3G3WIL:3YOH7BII0D4NJ0T452UUKAAQ0I8KV9,14,1580528444641,"{""rt"": 1392.1450001653284, ""stimulus"": ""Correct!"", ""button_pressed"": ""0"", ""test_part"": ""feedback"", ""trial_type"": ""html-button-response"", ""trial_index"": 14, ""time_elapsed"": 503398, ""internal_node_id"": ""0.0-4.0-2.0"", ""uniqueId"": ""A1O5IL3N3G3WIL:3YOH7BII0D4NJ0T452UUKAAQ0I8KV9"", ""condition"": 0, ""counterbalance"": 0}"
A1O5IL3N3G3WIL:3YOH7BII0D4NJ0T452UUKAAQ0I8KV9,15,1580528445443,"{""rt"": null, ""stimulus"": ""<div style=\""font-size:65px;\"">  <p> </p>A</div>"", ""key_press"": null, ""test_part"": ""training"", ""next_elem"": ""A"", ""trial_type"": ""html-keyboard-response"", ""trial_index"": 15, ""time_elapsed"": 504200, ""internal_node_id"": ""0.0-5.0-0.0-0.0"", ""uniqueId"": ""A1O5IL3N3G3WIL:3YOH7BII0D4NJ0T452UUKAAQ0I8KV9"", ""condition"": 0, ""counterbalance"": 0}"
A1O5IL3N3G3WIL:3YOH7BII0D4NJ0T452UUKAAQ0I8KV9,16,1580528446546,"{""rt"": null, ""stimulus"": ""<div style=\""font-size:65px;\"">  <p> </p>A</div>"", ""key_press"": null, ""test_part"": ""training"", ""next_elem"": ""A"", ""trial_type"": ""html-keyboard-response"", ""trial_index"": 16, ""time_elapsed"": 505303, ""internal_node_id"": ""0.0-5.0-0.0-0.1"", ""uniqueId"": ""A1O5IL3N3G3WIL:3YOH7BII0D4NJ0T452UUKAAQ0I8KV9"", ""condition"": 0, ""counterbalance"": 0}"
A1O5IL3N3G3WIL:3YOH7BII0D4NJ0T452UUKAAQ0I8KV9,17,1580528447650,"{""rt"": null, ""stimulus"": ""<div style=\""font-size:65px;\"">  <p> </p>A</div>"", ""key_press"": null, ""test_part"": ""training"", ""next_elem"": ""A"", ""trial_type"": ""html-keyboard-response"", ""trial_index"": 17, ""time_elapsed"": 506406, ""internal_node_id"": ""0.0-5.0-0.0-0.2"", ""uniqueId"": ""A1O5IL3N3G3WIL:3YOH7BII0D4NJ0T452UUKAAQ0I8KV9"", ""condition"": 0, ""counterbalance"": 0}"
A1O5IL3N3G3WIL:3YOH7BII0D4NJ0T452UUKAAQ0I8KV9,18,1580528448753,"{""rt"": null, ""stimulus"": ""<div style=\""font-size:65px;\"">  <p> </p>A</div>"", ""key_press"": null, ""test_part"": ""training"", ""next_elem"": ""A"", ""trial_type"": ""html-keyboard-response"", ""trial_index"": 18, ""time_elapsed"": 507510, ""internal_node_id"": ""0.0-5.0-0.0-0.3"", ""uniqueId"": ""A1O5IL3N3G3WIL:3YOH7BII0D4NJ0T452UUKAAQ0I8KV9"", ""condition"": 0, ""counterbalance"": 0}"
A1O5IL3N3G3WIL:3YOH7BII0D4NJ0T452UUKAAQ0I8KV9,19,1580528449856,"{""rt"": null, ""stimulus"": ""<div style=\""font-size:65px;\"">  <p> </p>A</div>"", ""key_press"": null, ""test_part"": ""training"", ""next_elem"": ""A"", ""trial_type"": ""html-keyboard-response"", ""trial_index"": 19, ""time_elapsed"": 508612, ""internal_node_id"": ""0.0-5.0-0.0-0.4"", ""uniqueId"": ""A1O5IL3N3G3WIL:3YOH7BII0D4NJ0T452UUKAAQ0I8KV9"", ""condition"": 0, ""counterbalance"": 0}"
A1O5IL3N3G3WIL:3YOH7BII0D4NJ0T452UUKAAQ0I8KV9,20,1580528450462,"{""rt"": 305.4900001734495, ""stimulus"": ""<div style=\""font-size:65px;\"">  <p> </p>A</div>"", ""key_press"": 32, ""test_part"": ""training"", ""next_elem"": ""A"", ""trial_type"": ""html-keyboard-response"", ""trial_index"": 20, ""time_elapsed"": 509219, ""internal_node_id"": ""0.0-5.0-0.0-0.5"", ""uniqueId"": ""A1O5IL3N3G3WIL:3YOH7BII0D4NJ0T452UUKAAQ0I8KV9"", ""condition"": 0, ""counterbalance"": 0}"
A1O5IL3N3G3WIL:3YOH7BII0D4NJ0T452UUKAAQ0I8KV9,21,1580528453050,"{""rt"": 2285.48499988392, ""responses"": ""{\""Q0\"":\""A\""}"", ""question_order"": ""[0]"", ""test_part"": ""prediction"", ""trial_type"": ""survey-multi-choice"", ""trial_index"": 21, ""time_elapsed"": 511807, ""internal_node_id"": ""0.0-5.0-1.0"", ""uniqueId"": ""A1O5IL3N3G3WIL:3YOH7BII0D4NJ0T452UUKAAQ0I8KV9"", ""condition"": 0, ""counterbalance"": 0}"
A1O5IL3N3G3WIL:3YOH7BII0D4NJ0T452UUKAAQ0I8KV9,22,1580528454233,"{""rt"": 1181.5399997867644, ""stimulus"": ""Correct!"", ""button_pressed"": ""0"", ""test_part"": ""feedback"", ""trial_type"": ""html-button-response"", ""trial_index"": 22, ""time_elapsed"": 512990, ""internal_node_id"": ""0.0-5.0-2.0"", ""uniqueId"": ""A1O5IL3N3G3WIL:3YOH7BII0D4NJ0T452UUKAAQ0I8KV9"", ""condition"": 0, ""counterbalance"": 0}"
A1O5IL3N3G3WIL:3YOH7BII0D4NJ0T452UUKAAQ0I8KV9,23,1580528455036,"{""rt"": null, ""stimulus"": ""<div style=\""font-size:65px;\"">A</div>"", ""key_press"": null, ""test_part"": ""training"", ""next_elem"": ""B"", ""trial_type"": ""html-keyboard-response"", ""trial_index"": 23, ""time_elapsed"": 513793, ""internal_node_id"": ""0.0-6.0-0.0-0.0"", ""uniqueId"": ""A1O5IL3N3G3WIL:3YOH7BII0D4NJ0T452UUKAAQ0I8KV9"", ""condition"": 0, ""counterbalance"": 0}"
A1O5IL3N3G3WIL:3YOH7BII0D4NJ0T452UUKAAQ0I8KV9,24,1580528456138,"{""rt"": null, ""stimulus"": ""<div style=\""font-size:65px;\"">B</div>"", ""key_press"": null, ""test_part"": ""training"", ""next_elem"": ""B"", ""trial_type"": ""html-keyboard-response"", ""trial_index"": 24, ""time_elapsed"": 514895, ""internal_node_id"": ""0.0-6.0-0.0-0.1"", ""uniqueId"": ""A1O5IL3N3G3WIL:3YOH7BII0D4NJ0T452UUKAAQ0I8KV9"", ""condition"": 0, ""counterbalance"": 0}"
A1O5IL3N3G3WIL:3YOH7BII0D4NJ0T452UUKAAQ0I8KV9,25,1580528457239,"{""rt"": null, ""stimulus"": ""<div style=\""font-size:65px;\"">B</div>"", ""key_press"": null, ""test_part"": ""training"", ""next_elem"": ""C"", ""trial_type"": ""html-keyboard-response"", ""trial_index"": 25, ""time_elapsed"": 515996, ""internal_node_id"": ""0.0-6.0-0.0-0.2"", ""uniqueId"": ""A1O5IL3N3G3WIL:3YOH7BII0D4NJ0T452UUKAAQ0I8KV9"", ""condition"": 0, ""counterbalance"": 0}"
A1O5IL3N3G3WIL:3YOH7BII0D4NJ0T452UUKAAQ0I8KV9,26,1580528458341,"{""rt"": null, ""stimulus"": ""<div style=\""font-size:65px;\"">C</div>"", ""key_press"": null, ""test_part"": ""training"", ""next_elem"": ""B"", ""trial_type"": ""html-keyboard-response"", ""trial_index"": 26, ""time_elapsed"": 517098, ""internal_node_id"": ""0.0-6.0-0.0-0.3"", ""uniqueId"": ""A1O5IL3N3G3WIL:3YOH7BII0D4NJ0T452UUKAAQ0I8KV9"", ""condition"": 0, ""counterbalance"": 0}"
A1O5IL3N3G3WIL:3YOH7BII0D4NJ0T452UUKAAQ0I8KV9,27,1580528459444,"{""rt"": null, ""stimulus"": ""<div style=\""font-size:65px;\"">B</div>"", ""key_press"": null, ""test_part"": ""training"", ""next_elem"": ""A"", ""trial_type"": ""html-keyboard-response"", ""trial_index"": 27, ""time_elapsed"": 518201, ""internal_node_id"": ""0.0-6.0-0.0-0.4"", ""uniqueId"": ""A1O5IL3N3G3WIL:3YOH7BII0D4NJ0T452UUKAAQ0I8KV9"", ""condition"": 0, ""counterbalance"": 0}"
A1O5IL3N3G3WIL:3YOH7BII0D4NJ0T452UUKAAQ0I8KV9,28,1580528460546,"{""rt"": null, ""stimulus"": ""<div style=\""font-size:65px;\"">A</div>"", ""key_press"": null, ""test_part"": ""training"", ""next_elem"": ""C"", ""trial_type"": ""html-keyboard-response"", ""trial_index"": 28, ""time_elapsed"": 519303, ""internal_node_id"": ""0.0-6.0-0.0-0.5"", ""uniqueId"": ""A1O5IL3N3G3WIL:3YOH7BII0D4NJ0T452UUKAAQ0I8KV9"", ""condition"": 0, ""counterbalance"": 0}"
A1O5IL3N3G3WIL:3YOH7BII0D4NJ0T452UUKAAQ0I8KV9,29,1580528461649,"{""rt"": null, ""stimulus"": ""<div style=\""font-size:65px;\"">C</div>"", ""key_press"": null, ""test_part"": ""training"", ""next_elem"": ""C"", ""trial_type"": ""html-keyboard-response"", ""trial_index"": 29, ""time_elapsed"": 520406, ""internal_node_id"": ""0.0-6.0-0.0-0.6"", ""uniqueId"": ""A1O5IL3N3G3WIL:3YOH7BII0D4NJ0T452UUKAAQ0I8KV9"", ""condition"": 0, ""counterbalance"": 0}"
A1O5IL3N3G3WIL:3YOH7BII0D4NJ0T452UUKAAQ0I8KV9,30,1580528462751,"{""rt"": null, ""stimulus"": ""<div style=\""font-size:65px;\"">C</div>"", ""key_press"": null, ""test_part"": ""training"", ""next_elem"": ""B"", ""trial_type"": ""html-keyboard-response"", ""trial_index"": 30, ""time_elapsed"": 521508, ""internal_node_id"": ""0.0-6.0-0.0-0.7"", ""uniqueId"": ""A1O5IL3N3G3WIL:3YOH7BII0D4NJ0T452UUKAAQ0I8KV9"", ""condition"": 0, ""counterbalance"": 0}"
A1O5IL3N3G3WIL:3YOH7BII0D4NJ0T452UUKAAQ0I8KV9,31,1580528463854,"{""rt"": null, ""stimulus"": ""<div style=\""font-size:65px;\"">B</div>"", ""key_press"": null, ""test_part"": ""training"", ""next_elem"": ""A"", ""trial_type"": ""html-keyboard-response"", ""trial_index"": 31, ""time_elapsed"": 522611, ""internal_node_id"": ""0.0-6.0-0.0-0.8"", ""uniqueId"": ""A1O5IL3N3G3WIL:3YOH7BII0D4NJ0T452UUKAAQ0I8KV9"", ""condition"": 0, ""counterbalance"": 0}"
A1O5IL3N3G3WIL:3YOH7BII0D4NJ0T452UUKAAQ0I8KV9,32,1580528464957,"{""rt"": null, ""stimulus"": ""<div style=\""font-size:65px;\"">A</div>"", ""key_press"": null, ""test_part"": ""training"", ""next_elem"": ""C"", ""trial_type"": ""html-keyboard-response"", ""trial_index"": 32, ""time_elapsed"": 523713, ""internal_node_id"": ""0.0-6.0-0.0-0.9"", ""uniqueId"": ""A1O5IL3N3G3WIL:3YOH7BII0D4NJ0T452UUKAAQ0I8KV9"", ""condition"": 0, ""counterbalance"": 0}"
A1O5IL3N3G3WIL:3YOH7BII0D4NJ0T452UUKAAQ0I8KV9,33,1580528466059,"{""rt"": null, ""stimulus"": ""<div style=\""font-size:65px;\"">C</div>"", ""key_press"": null, ""test_part"": ""training"", ""next_elem"": ""B"", ""trial_type"": ""html-keyboard-response"", ""trial_index"": 33, ""time_elapsed"": 524816, ""internal_node_id"": ""0.0-6.0-0.0-0.10"", ""uniqueId"": ""A1O5IL3N3G3WIL:3YOH7BII0D4NJ0T452UUKAAQ0I8KV9"", ""condition"": 0, ""counterbalance"": 0}"
A1O5IL3N3G3WIL:3YOH7BII0D4NJ0T452UUKAAQ0I8KV9,34,1580528467161,"{""rt"": null, ""stimulus"": ""<div style=\""font-size:65px;\"">B</div>"", ""key_press"": null, ""test_part"": ""training"", ""next_elem"": ""C"", ""trial_type"": ""html-keyboard-response"", ""trial_index"": 34, ""time_elapsed"": 525918, ""internal_node_id"": ""0.0-6.0-0.0-0.11"", ""uniqueId"": ""A1O5IL3N3G3WIL:3YOH7BII0D4NJ0T452UUKAAQ0I8KV9"", ""condition"": 0, ""counterbalance"": 0}"
A1O5IL3N3G3WIL:3YOH7BII0D4NJ0T452UUKAAQ0I8KV9,35,1580528468264,"{""rt"": null, ""stimulus"": ""<div style=\""font-size:65px;\"">C</div>"", ""key_press"": null, ""test_part"": ""training"", ""next_elem"": ""B"", ""trial_type"": ""html-keyboard-response"", ""trial_index"": 35, ""time_elapsed"": 527021, ""internal_node_id"": ""0.0-6.0-0.0-0.12"", ""uniqueId"": ""A1O5IL3N3G3WIL:3YOH7BII0D4NJ0T452UUKAAQ0I8KV9"", ""condition"": 0, ""counterbalance"": 0}"
A1O5IL3N3G3WIL:3YOH7BII0D4NJ0T452UUKAAQ0I8KV9,36,1580528469366,"{""rt"": null, ""stimulus"": ""<div style=\""font-size:65px;\"">B</div>"", ""key_press"": null, ""test_part"": ""training"", ""next_elem"": ""A"", ""trial_type"": ""html-keyboard-response"", ""trial_index"": 36, ""time_elapsed"": 528123, ""internal_node_id"": ""0.0-6.0-0.0-0.13"", ""uniqueId"": ""A1O5IL3N3G3WIL:3YOH7BII0D4NJ0T452UUKAAQ0I8KV9"", ""condition"": 0, ""counterbalance"": 0}"
A1O5IL3N3G3WIL:3YOH7BII0D4NJ0T452UUKAAQ0I8KV9,37,1580528470059,"{""rt"": 391.6100000496954, ""stimulus"": ""<div style=\""font-size:65px;\"">A</div>"", ""key_press"": 32, ""test_part"": ""training"", ""next_elem"": ""A "", ""trial_type"": ""html-keyboard-response"", ""trial_index"": 37, ""time_elapsed"": 528816, ""internal_node_id"": ""0.0-6.0-0.0-0.14"", ""uniqueId"": ""A1O5IL3N3G3WIL:3YOH7BII0D4NJ0T452UUKAAQ0I8KV9"", ""condition"": 0, ""counterbalance"": 0}"
A1O5IL3N3G3WIL:3YOH7BII0D4NJ0T452UUKAAQ0I8KV9,38,1580528472878,"{""rt"": 2516.3149998988956, ""responses"": ""{\""Q0\"":\""Equally likely\""}"", ""question_order"": ""[0]"", ""test_part"": ""prediction"", ""trial_type"": ""survey-multi-choice"", ""trial_index"": 38, ""time_elapsed"": 531635, ""internal_node_id"": ""0.0-6.0-1.0"", ""uniqueId"": ""A1O5IL3N3G3WIL:3YOH7BII0D4NJ0T452UUKAAQ0I8KV9"", ""condition"": 0, ""counterbalance"": 0}"
A1O5IL3N3G3WIL:3YOH7BII0D4NJ0T452UUKAAQ0I8KV9,39,1580528577598,"{""rt"": 104717.87000005133, ""stimulus"": """", ""button_pressed"": ""0"", ""test_part"": ""feedback"", ""trial_type"": ""html-button-response"", ""trial_index"": 39, ""time_elapsed"": 636355, ""internal_node_id"": ""0.0-6.0-2.0"", ""uniqueId"": ""A1O5IL3N3G3WIL:3YOH7BII0D4NJ0T452UUKAAQ0I8KV9"", ""condition"": 0, ""counterbalance"": 0}"
A1O5IL3N3G3WIL:3YOH7BII0D4NJ0T452UUKAAQ0I8KV9,40,1580528584229,"{""rt"": 6629.719999851659, ""stimulus"": ""<p> You are now ready to proceed with the actual experiment. It will take about 8min from now. </p>"", ""button_pressed"": ""0"", ""test_part"": ""instructions"", ""trial_type"": ""html-button-response"", ""trial_index"": 40, ""time_elapsed"": 642986, ""internal_node_id"": ""0.0-7.0"", ""uniqueId"": ""A1O5IL3N3G3WIL:3YOH7BII0D4NJ0T452UUKAAQ0I8KV9"", ""condition"": 0, ""counterbalance"": 0}"
A1O5IL3N3G3WIL:3YOH7BII0D4NJ0T452UUKAAQ0I8KV9,41,1580528585031,"{""rt"": null, ""stimulus"": ""<div style=\""font-size:65px;\"">B</div>"", ""key_press"": null, ""test_part"": ""test"", ""next_elem"": ""A"", ""trial_type"": ""html-keyboard-response"", ""trial_index"": 41, ""time_elapsed"": 643788, ""internal_node_id"": ""0.0-8.0-0.0-0.0"", ""uniqueId"": ""A1O5IL3N3G3WIL:3YOH7BII0D4NJ0T452UUKAAQ0I8KV9"", ""condition"": 0, ""counterbalance"": 0}"
A1O5IL3N3G3WIL:3YOH7BII0D4NJ0T452UUKAAQ0I8KV9,42,1580528586133,"{""rt"": null, ""stimulus"": ""<div style=\""font-size:65px;\"">A</div>"", ""key_press"": null, ""test_part"": ""test"", ""next_elem"": ""B"", ""trial_type"": ""html-keyboard-response"", ""trial_index"": 42, ""time_elapsed"": 644890, ""internal_node_id"": ""0.0-8.0-0.0-0.1"", ""uniqueId"": ""A1O5IL3N3G3WIL:3YOH7BII0D4NJ0T452UUKAAQ0I8KV9"", ""condition"": 0, ""counterbalance"": 0}"
A1O5IL3N3G3WIL:3YOH7BII0D4NJ0T452UUKAAQ0I8KV9,43,1580528587235,"{""rt"": null, ""stimulus"": ""<div style=\""font-size:65px;\"">B</div>"", ""key_press"": null, ""test_part"": ""test"", ""next_elem"": ""A"", ""trial_type"": ""html-keyboard-response"", ""trial_index"": 43, ""time_elapsed"": 645992, ""internal_node_id"": ""0.0-8.0-0.0-0.2"", ""uniqueId"": ""A1O5IL3N3G3WIL:3YOH7BII0D4NJ0T452UUKAAQ0I8KV9"", ""condition"": 0, ""counterbalance"": 0}"
A1O5IL3N3G3WIL:3YOH7BII0D4NJ0T452UUKAAQ0I8KV9,44,1580528588338,"{""rt"": null, ""stimulus"": ""<div style=\""font-size:65px;\"">A</div>"", ""key_press"": null, ""test_part"": ""test"", ""next_elem"": ""B"", ""trial_type"": ""html-keyboard-response"", ""trial_index"": 44, ""time_elapsed"": 647095, ""internal_node_id"": ""0.0-8.0-0.0-0.3"", ""uniqueId"": ""A1O5IL3N3G3WIL:3YOH7BII0D4NJ0T452UUKAAQ0I8KV9"", ""condition"": 0, ""counterbalance"": 0}"
A1O5IL3N3G3WIL:3YOH7BII0D4NJ0T452UUKAAQ0I8KV9,45,1580528589176,"{""rt"": 537.5300000887364, ""stimulus"": ""<div style=\""font-size:65px;\"">B</div>"", ""key_press"": 32, ""test_part"": ""test"", ""next_elem"": ""A"", ""trial_type"": ""html-keyboard-response"", ""trial_index"": 45, ""time_elapsed"": 647933, ""internal_node_id"": ""0.0-8.0-0.0-0.4"", ""uniqueId"": ""A1O5IL3N3G3WIL:3YOH7BII0D4NJ0T452UUKAAQ0I8KV9"", ""condition"": 0, ""counterbalance"": 0}"
A1O5IL3N3G3WIL:3YOH7BII0D4NJ0T452UUKAAQ0I8KV9,46,1580528591784,"{""rt"": 2305.769999977201, ""responses"": ""{\""Q0\"":\""A\""}"", ""question_order"": ""[0]"", ""test_part"": ""prediction"", ""trial_type"": ""survey-multi-choice"", ""trial_index"": 46, ""time_elapsed"": 650541, ""internal_node_id"": ""0.0-8.0-1.0"", ""uniqueId"": ""A1O5IL3N3G3WIL:3YOH7BII0D4NJ0T452UUKAAQ0I8KV9"", ""condition"": 0, ""counterbalance"": 0}"
A1P2RQ166VS5BT:358010RM5IQT30SB4L9JA4ISWRNVX9,0,1580528819576,"{""rt"": 6171.754999784753, ""responses"": ""{\""Q0\"":\""circle, green\""}"", ""test_part"": ""botcheck"", ""trial_type"": ""survey-text"", ""trial_index"": 0, ""time_elapsed"": 6183, ""internal_node_id"": ""0.0-0.0"", ""uniqueId"": ""A1P2RQ166VS5BT:358010RM5IQT30SB4L9JA4ISWRNVX9"", ""condition"": 0, ""counterbalance"": 0}"
A1P2RQ166VS5BT:358010RM5IQT30SB4L9JA4ISWRNVX9,1,1580528821285,"{""rt"": 1706.5400001592934, ""stimulus"": ""<p> <i> This session will last for 10min. Please complete it in full screen mode. </p><p> Do this experiment in one go, otherwise it will time out and we will </p><p> not be able to pay you. </i> </p> "", ""button_pressed"": ""0"", ""test_part"": ""instructions"", ""trial_type"": ""html-button-response"", ""trial_index"": 1, ""time_elapsed"": 7893, ""internal_node_id"": ""0.0-1.0"", ""uniqueId"": ""A1P2RQ166VS5BT:358010RM5IQT30SB4L9JA4ISWRNVX9"", ""condition"": 0, ""counterbalance"": 0}"
A1P2RQ166VS5BT:358010RM5IQT30SB4L9JA4ISWRNVX9,2,1580528823420,"{""rt"": 1132.1449999231845, ""stimulus"": ""<p> In each trial, you will see some letters (A, B or C) appearing one-by-one. </p><p> <b> Your task is to stop the sequence when 1) you feel like you can predict the next letter <i>or</i> </p><p> 2) you feel like there is no structure and the sequence is unpredictable. </b> </p><p> Some sequences you will see have some structure, and some don't, so they will be more or less predictable. </p><p> <br> Let us practice a bit before we move on to the actual experiment. </p> <br />"", ""button_pressed"": ""0"", ""test_part"": ""instructions"", ""trial_type"": ""html-button-response"", ""trial_index"": 2, ""time_elapsed"": 10028, ""internal_node_id"": ""0.0-2.0"", ""uniqueId"": ""A1P2RQ166VS5BT:358010RM5IQT30SB4L9JA4ISWRNVX9"", ""condition"": 0, ""counterbalance"": 0}"
A1P2RQ166VS5BT:358010RM5IQT30SB4L9JA4ISWRNVX9,3,1580528825452,"{""rt"": 1027.680000057444, ""stimulus"": ""<p> Remember: Some sequences will be very predictable, some will be somewhat predictable, </p><p> while others will have no structure at all.</p> <p> <b> Stop the sequence by pressing the spacebar </b> </p><p> whenever you feel you can predict the next letter, or you decide that the sequence is unpredictable. </p><p> When you stop the sequence, you will be asked to predict the next letter, and you will receive feedback. </p><p> You can also say that the sequence was unpredictable by selecting 'Equally likely'. In this case you will receive no feedback. </p><p> <br> Let us practice. </br> <p>"", ""button_pressed"": ""0"", ""test_part"": ""instructions"", ""trial_type"": ""html-button-response"", ""trial_index"": 3, ""time_elapsed"": 12060, ""internal_node_id"": ""0.0-3.0"", ""uniqueId"": ""A1P2RQ166VS5BT:358010RM5IQT30SB4L9JA4ISWRNVX9"", ""condition"": 0, ""counterbalance"": 0}"
A1P2RQ166VS5BT:358010RM5IQT30SB4L9JA4ISWRNVX9,4,1580528827262,"{""rt"": null, ""stimulus"": ""<div style=\""font-size:65px;\"">  <p> </p>A</div>"", ""key_press"": null, ""test_part"": ""training"", ""next_elem"": ""B"", ""trial_type"": ""html-keyboard-response"", ""trial_index"": 4, ""time_elapsed"": 13870, ""internal_node_id"": ""0.0-4.0-0.0-0.0"", ""uniqueId"": ""A1P2RQ166VS5BT:358010RM5IQT30SB4L9JA4ISWRNVX9"", ""condition"": 0, ""counterbalance"": 0}"
A1P2RQ166VS5BT:358010RM5IQT30SB4L9JA4ISWRNVX9,5,1580528828365,"{""rt"": null, ""stimulus"": ""<div style=\""font-size:65px;\"">  <p> </p>B</div>"", ""key_press"": null, ""test_part"": ""training"", ""next_elem"": ""C"", ""trial_type"": ""html-keyboard-response"", ""trial_index"": 5, ""time_elapsed"": 14973, ""internal_node_id"": ""0.0-4.0-0.0-0.1"", ""uniqueId"": ""A1P2RQ166VS5BT:358010RM5IQT30SB4L9JA4ISWRNVX9"", ""condition"": 0, ""counterbalance"": 0}"
A1P2RQ166VS5BT:358010RM5IQT30SB4L9JA4ISWRNVX9,6,1580528829470,"{""rt"": null, ""stimulus"": ""<div style=\""font-size:65px;\"">  <p> </p>C</div>"", ""key_press"": null, ""test_part"": ""training"", ""next_elem"": ""A"", ""trial_type"": ""html-keyboard-response"", ""trial_index"": 6, ""time_elapsed"": 16078, ""internal_node_id"": ""0.0-4.0-0.0-0.2"", ""uniqueId"": ""A1P2RQ166VS5BT:358010RM5IQT30SB4L9JA4ISWRNVX9"", ""condition"": 0, ""counterbalance"": 0}"
A1P2RQ166VS5BT:358010RM5IQT30SB4L9JA4ISWRNVX9,7,1580528830577,"{""rt"": null, ""stimulus"": ""<div style=\""font-size:65px;\"">  <p> </p>A</div>"", ""key_press"": null, ""test_part"": ""training"", ""next_elem"": ""B"", ""trial_type"": ""html-keyboard-response"", ""trial_index"": 7, ""time_elapsed"": 17185, ""internal_node_id"": ""0.0-4.0-0.0-0.3"", ""uniqueId"": ""A1P2RQ166VS5BT:358010RM5IQT30SB4L9JA4ISWRNVX9"", ""condition"": 0, ""counterbalance"": 0}"
A1P2RQ166VS5BT:358010RM5IQT30SB4L9JA4ISWRNVX9,8,1580528831679,"{""rt"": null, ""stimulus"": ""<div style=\""font-size:65px;\"">  <p> </p>B</div>"", ""key_press"": null, ""test_part"": ""training"", ""next_elem"": ""C"", ""trial_type"": ""html-keyboard-response"", ""trial_index"": 8, ""time_elapsed"": 18287, ""internal_node_id"": ""0.0-4.0-0.0-0.4"", ""uniqueId"": ""A1P2RQ166VS5BT:358010RM5IQT30SB4L9JA4ISWRNVX9"", ""condition"": 0, ""counterbalance"": 0}"
A1P2RQ166VS5BT:358010RM5IQT30SB4L9JA4ISWRNVX9,9,1580528832783,"{""rt"": null, ""stimulus"": ""<div style=\""font-size:65px;\"">  <p> </p>C</div>"", ""key_press"": null, ""test_part"": ""training"", ""next_elem"": ""A"", ""trial_type"": ""html-keyboard-response"", ""trial_index"": 9, ""time_elapsed"": 19391, ""internal_node_id"": ""0.0-4.0-0.0-0.5"", ""uniqueId"": ""A1P2RQ166VS5BT:358010RM5IQT30SB4L9JA4ISWRNVX9"", ""condition"": 0, ""counterbalance"": 0}"
A1P2RQ166VS5BT:358010RM5IQT30SB4L9JA4ISWRNVX9,10,1580528833886,"{""rt"": null, ""stimulus"": ""<div style=\""font-size:65px;\"">  <p> </p>A</div>"", ""key_press"": null, ""test_part"": ""training"", ""next_elem"": ""B"", ""trial_type"": ""html-keyboard-response"", ""trial_index"": 10, ""time_elapsed"": 20494, ""internal_node_id"": ""0.0-4.0-0.0-0.6"", ""uniqueId"": ""A1P2RQ166VS5BT:358010RM5IQT30SB4L9JA4ISWRNVX9"", ""condition"": 0, ""counterbalance"": 0}"
A1P2RQ166VS5BT:358010RM5IQT30SB4L9JA4ISWRNVX9,11,1580528834989,"{""rt"": null, ""stimulus"": ""<div style=\""font-size:65px;\"">  <p> </p>B</div>"", ""key_press"": null, ""test_part"": ""training"", ""next_elem"": ""C"", ""trial_type"": ""html-keyboard-response"", ""trial_index"": 11, ""time_elapsed"": 21597, ""internal_node_id"": ""0.0-4.0-0.0-0.7"", ""uniqueId"": ""A1P2RQ166VS5BT:358010RM5IQT30SB4L9JA4ISWRNVX9"", ""condition"": 0, ""counterbalance"": 0}"
A1P2RQ166VS5BT:358010RM5IQT30SB4L9JA4ISWRNVX9,12,1580528836092,"{""rt"": null, ""stimulus"": ""<div style=\""font-size:65px;\"">  <p> </p>C</div>"", ""key_press"": null, ""test_part"": ""training"", ""next_elem"": ""A"", ""trial_type"": ""html-keyboard-response"", ""trial_index"": 12, ""time_elapsed"": 22700, ""internal_node_id"": ""0.0-4.0-0.0-0.8"", ""uniqueId"": ""A1P2RQ166VS5BT:358010RM5IQT30SB4L9JA4ISWRNVX9"", ""condition"": 0, ""counterbalance"": 0}"
A1P2RQ166VS5BT:358010RM5IQT30SB4L9JA4ISWRNVX9,13,1580528837196,"{""rt"": null, ""stimulus"": ""<div style=\""font-size:65px;\"">  <p> </p>A</div>"", ""key_press"": null, ""test_part"": ""training"", ""next_elem"": ""B"", ""trial_type"": ""html-keyboard-response"", ""trial_index"": 13, ""time_elapsed"": 23804, ""internal_node_id"": ""0.0-4.0-0.0-0.9"", ""uniqueId"": ""A1P2RQ166VS5BT:358010RM5IQT30SB4L9JA4ISWRNVX9"", ""condition"": 0, ""counterbalance"": 0}"
A1P2RQ166VS5BT:358010RM5IQT30SB4L9JA4ISWRNVX9,14,1580528838301,"{""rt"": null, ""stimulus"": ""<div style=\""font-size:65px;\"">  <p> </p>B</div>"", ""key_press"": null, ""test_part"": ""training"", ""next_elem"": ""C"", ""trial_type"": ""html-keyboard-response"", ""trial_index"": 14, ""time_elapsed"": 24908, ""internal_node_id"": ""0.0-4.0-0.0-0.10"", ""uniqueId"": ""A1P2RQ166VS5BT:358010RM5IQT30SB4L9JA4ISWRNVX9"", ""condition"": 0, ""counterbalance"": 0}"
A1P2RQ166VS5BT:358010RM5IQT30SB4L9JA4ISWRNVX9,15,1580528839406,"{""rt"": null, ""stimulus"": ""<div style=\""font-size:65px;\"">  <p> </p>C</div>"", ""key_press"": null, ""test_part"": ""training"", ""next_elem"": ""A"", ""trial_type"": ""html-keyboard-response"", ""trial_index"": 15, ""time_elapsed"": 26014, ""internal_node_id"": ""0.0-4.0-0.0-0.11"", ""uniqueId"": ""A1P2RQ166VS5BT:358010RM5IQT30SB4L9JA4ISWRNVX9"", ""condition"": 0, ""counterbalance"": 0}"
A1P2RQ166VS5BT:358010RM5IQT30SB4L9JA4ISWRNVX9,16,1580528840509,"{""rt"": null, ""stimulus"": ""<div style=\""font-size:65px;\"">  <p> </p>A</div>"", ""key_press"": null, ""test_part"": ""training"", ""next_elem"": ""B"", ""trial_type"": ""html-keyboard-response"", ""trial_index"": 16, ""time_elapsed"": 27117, ""internal_node_id"": ""0.0-4.0-0.0-0.12"", ""uniqueId"": ""A1P2RQ166VS5BT:358010RM5IQT30SB4L9JA4ISWRNVX9"", ""condition"": 0, ""counterbalance"": 0}"
A1P2RQ166VS5BT:358010RM5IQT30SB4L9JA4ISWRNVX9,17,1580528841612,"{""rt"": null, ""stimulus"": ""<div style=\""font-size:65px;\"">  <p> </p>B</div>"", ""key_press"": null, ""test_part"": ""training"", ""next_elem"": ""C"", ""trial_type"": ""html-keyboard-response"", ""trial_index"": 17, ""time_elapsed"": 28220, ""internal_node_id"": ""0.0-4.0-0.0-0.13"", ""uniqueId"": ""A1P2RQ166VS5BT:358010RM5IQT30SB4L9JA4ISWRNVX9"", ""condition"": 0, ""counterbalance"": 0}"
A1P2RQ166VS5BT:358010RM5IQT30SB4L9JA4ISWRNVX9,18,1580528842714,"{""rt"": null, ""stimulus"": ""<div style=\""font-size:65px;\"">  <p> </p>C</div>"", ""key_press"": null, ""test_part"": ""training"", ""next_elem"": ""A"", ""trial_type"": ""html-keyboard-response"", ""trial_index"": 18, ""time_elapsed"": 29322, ""internal_node_id"": ""0.0-4.0-0.0-0.14"", ""uniqueId"": ""A1P2RQ166VS5BT:358010RM5IQT30SB4L9JA4ISWRNVX9"", ""condition"": 0, ""counterbalance"": 0}"
A1P2RQ166VS5BT:358010RM5IQT30SB4L9JA4ISWRNVX9,19,1580528843816,"{""rt"": null, ""stimulus"": ""<div style=\""font-size:65px;\"">  <p> </p>A</div>"", ""key_press"": null, ""test_part"": ""training"", ""next_elem"": ""B"", ""trial_type"": ""html-keyboard-response"", ""trial_index"": 19, ""time_elapsed"": 30424, ""internal_node_id"": ""0.0-4.0-0.0-0.15"", ""uniqueId"": ""A1P2RQ166VS5BT:358010RM5IQT30SB4L9JA4ISWRNVX9"", ""condition"": 0, ""counterbalance"": 0}"
A1P2RQ166VS5BT:358010RM5IQT30SB4L9JA4ISWRNVX9,20,1580528844921,"{""rt"": null, ""stimulus"": ""<div style=\""font-size:65px;\"">  <p> </p>B</div>"", ""key_press"": null, ""test_part"": ""training"", ""next_elem"": ""C"", ""trial_type"": ""html-keyboard-response"", ""trial_index"": 20, ""time_elapsed"": 31528, ""internal_node_id"": ""0.0-4.0-0.0-0.16"", ""uniqueId"": ""A1P2RQ166VS5BT:358010RM5IQT30SB4L9JA4ISWRNVX9"", ""condition"": 0, ""counterbalance"": 0}"
A1P2RQ166VS5BT:358010RM5IQT30SB4L9JA4ISWRNVX9,21,1580528846025,"{""rt"": null, ""stimulus"": ""<div style=\""font-size:65px;\"">  <p> </p>C</div>"", ""key_press"": null, ""test_part"": ""training"", ""next_elem"": ""A"", ""trial_type"": ""html-keyboard-response"", ""trial_index"": 21, ""time_elapsed"": 32633, ""internal_node_id"": ""0.0-4.0-0.0-0.17"", ""uniqueId"": ""A1P2RQ166VS5BT:358010RM5IQT30SB4L9JA4ISWRNVX9"", ""condition"": 0, ""counterbalance"": 0}"
A1P2RQ166VS5BT:358010RM5IQT30SB4L9JA4ISWRNVX9,22,1580528847130,"{""rt"": null, ""stimulus"": ""<div style=\""font-size:65px;\"">  <p> </p>A</div>"", ""key_press"": null, ""test_part"": ""training"", ""next_elem"": ""B"", ""trial_type"": ""html-keyboard-response"", ""trial_index"": 22, ""time_elapsed"": 33738, ""internal_node_id"": ""0.0-4.0-0.0-0.18"", ""uniqueId"": ""A1P2RQ166VS5BT:358010RM5IQT30SB4L9JA4ISWRNVX9"", ""condition"": 0, ""counterbalance"": 0}"
A1P2RQ166VS5BT:358010RM5IQT30SB4L9JA4ISWRNVX9,23,1580528848232,"{""rt"": null, ""stimulus"": ""<div style=\""font-size:65px;\"">  <p> </p>B</div>"", ""key_press"": null, ""test_part"": ""training"", ""next_elem"": ""C"", ""trial_type"": ""html-keyboard-response"", ""trial_index"": 23, ""time_elapsed"": 34840, ""internal_node_id"": ""0.0-4.0-0.0-0.19"", ""uniqueId"": ""A1P2RQ166VS5BT:358010RM5IQT30SB4L9JA4ISWRNVX9"", ""condition"": 0, ""counterbalance"": 0}"
A1P2RQ166VS5BT:358010RM5IQT30SB4L9JA4ISWRNVX9,24,1580528849340,"{""rt"": null, ""stimulus"": ""<div style=\""font-size:65px;\"">  <p> </p>C</div>"", ""key_press"": null, ""test_part"": ""training"", ""next_elem"": ""A"", ""trial_type"": ""html-keyboard-response"", ""trial_index"": 24, ""time_elapsed"": 35947, ""internal_node_id"": ""0.0-4.0-0.0-0.20"", ""uniqueId"": ""A1P2RQ166VS5BT:358010RM5IQT30SB4L9JA4ISWRNVX9"", ""condition"": 0, ""counterbalance"": 0}"
A1P2RQ166VS5BT:358010RM5IQT30SB4L9JA4ISWRNVX9,25,1580528850448,"{""rt"": null, ""stimulus"": ""<div style=\""font-size:65px;\"">  <p> </p>A</div>"", ""key_press"": null, ""test_part"": ""training"", ""next_elem"": ""B"", ""trial_type"": ""html-keyboard-response"", ""trial_index"": 25, ""time_elapsed"": 37056, ""internal_node_id"": ""0.0-4.0-0.0-0.21"", ""uniqueId"": ""A1P2RQ166VS5BT:358010RM5IQT30SB4L9JA4ISWRNVX9"", ""condition"": 0, ""counterbalance"": 0}"
A1P2RQ166VS5BT:358010RM5IQT30SB4L9JA4ISWRNVX9,26,1580528851553,"{""rt"": null, ""stimulus"": ""<div style=\""font-size:65px;\"">  <p> </p>B</div>"", ""key_press"": null, ""test_part"": ""training"", ""next_elem"": ""C"", ""trial_type"": ""html-keyboard-response"", ""trial_index"": 26, ""time_elapsed"": 38161, ""internal_node_id"": ""0.0-4.0-0.0-0.22"", ""uniqueId"": ""A1P2RQ166VS5BT:358010RM5IQT30SB4L9JA4ISWRNVX9"", ""condition"": 0, ""counterbalance"": 0}"
A1P2RQ166VS5BT:358010RM5IQT30SB4L9JA4ISWRNVX9,27,1580528852660,"{""rt"": null, ""stimulus"": ""<div style=\""font-size:65px;\"">  <p> </p>C</div>"", ""key_press"": null, ""test_part"": ""training"", ""next_elem"": ""A"", ""trial_type"": ""html-keyboard-response"", ""trial_index"": 27, ""time_elapsed"": 39267, ""internal_node_id"": ""0.0-4.0-0.0-0.23"", ""uniqueId"": ""A1P2RQ166VS5BT:358010RM5IQT30SB4L9JA4ISWRNVX9"", ""condition"": 0, ""counterbalance"": 0}"
A1P2RQ166VS5BT:358010RM5IQT30SB4L9JA4ISWRNVX9,28,1580528853762,"{""rt"": null, ""stimulus"": ""<div style=\""font-size:65px;\"">  <p> </p>A</div>"", ""key_press"": null, ""test_part"": ""training"", ""next_elem"": ""B"", ""trial_type"": ""html-keyboard-response"", ""trial_index"": 28, ""time_elapsed"": 40370, ""internal_node_id"": ""0.0-4.0-0.0-0.24"", ""uniqueId"": ""A1P2RQ166VS5BT:358010RM5IQT30SB4L9JA4ISWRNVX9"", ""condition"": 0, ""counterbalance"": 0}"
A1P2RQ166VS5BT:358010RM5IQT30SB4L9JA4ISWRNVX9,29,1580528854867,"{""rt"": null, ""stimulus"": ""<div style=\""font-size:65px;\"">  <p> </p>B</div>"", ""key_press"": null, ""test_part"": ""training"", ""next_elem"": ""C"", ""trial_type"": ""html-keyboard-response"", ""trial_index"": 29, ""time_elapsed"": 41474, ""internal_node_id"": ""0.0-4.0-0.0-0.25"", ""uniqueId"": ""A1P2RQ166VS5BT:358010RM5IQT30SB4L9JA4ISWRNVX9"", ""condition"": 0, ""counterbalance"": 0}"
A1P2RQ166VS5BT:358010RM5IQT30SB4L9JA4ISWRNVX9,30,1580528855973,"{""rt"": null, ""stimulus"": ""<div style=\""font-size:65px;\"">  <p> </p>C</div>"", ""key_press"": null, ""test_part"": ""training"", ""next_elem"": ""A"", ""trial_type"": ""html-keyboard-response"", ""trial_index"": 30, ""time_elapsed"": 42581, ""internal_node_id"": ""0.0-4.0-0.0-0.26"", ""uniqueId"": ""A1P2RQ166VS5BT:358010RM5IQT30SB4L9JA4ISWRNVX9"", ""condition"": 0, ""counterbalance"": 0}"
A1P2RQ166VS5BT:358010RM5IQT30SB4L9JA4ISWRNVX9,31,1580528857080,"{""rt"": null, ""stimulus"": ""<div style=\""font-size:65px;\"">  <p> </p>A</div>"", ""key_press"": null, ""test_part"": ""training"", ""next_elem"": ""B"", ""trial_type"": ""html-keyboard-response"", ""trial_index"": 31, ""time_elapsed"": 43688, ""internal_node_id"": ""0.0-4.0-0.0-0.27"", ""uniqueId"": ""A1P2RQ166VS5BT:358010RM5IQT30SB4L9JA4ISWRNVX9"", ""condition"": 0, ""counterbalance"": 0}"
A1P2RQ166VS5BT:358010RM5IQT30SB4L9JA4ISWRNVX9,32,1580528858185,"{""rt"": null, ""stimulus"": ""<div style=\""font-size:65px;\"">  <p> </p>B</div>"", ""key_press"": null, ""test_part"": ""training"", ""next_elem"": ""C"", ""trial_type"": ""html-keyboard-response"", ""trial_index"": 32, ""time_elapsed"": 44793, ""internal_node_id"": ""0.0-4.0-0.0-0.28"", ""uniqueId"": ""A1P2RQ166VS5BT:358010RM5IQT30SB4L9JA4ISWRNVX9"", ""condition"": 0, ""counterbalance"": 0}"
A1P2RQ166VS5BT:358010RM5IQT30SB4L9JA4ISWRNVX9,33,1580528863077,"{""rt"": 4587.4799999874085, ""responses"": ""{\""Q0\"":\""C\""}"", ""question_order"": ""[0]"", ""test_part"": ""prediction"", ""trial_type"": ""survey-multi-choice"", ""trial_index"": 33, ""time_elapsed"": 49685, ""internal_node_id"": ""0.0-4.0-1.0"", ""uniqueId"": ""A1P2RQ166VS5BT:358010RM5IQT30SB4L9JA4ISWRNVX9"", ""condition"": 0, ""counterbalance"": 0}"
A1P2RQ166VS5BT:358010RM5IQT30SB4L9JA4ISWRNVX9,34,1580528864261,"{""rt"": 1180.7800000533462, ""stimulus"": ""Correct!"", ""button_pressed"": ""0"", ""test_part"": ""feedback"", ""trial_type"": ""html-button-response"", ""trial_index"": 34, ""time_elapsed"": 50868, ""internal_node_id"": ""0.0-4.0-2.0"", ""uniqueId"": ""A1P2RQ166VS5BT:358010RM5IQT30SB4L9JA4ISWRNVX9"", ""condition"": 0, ""counterbalance"": 0}"
A1P2RQ166VS5BT:358010RM5IQT30SB4L9JA4ISWRNVX9,35,1580528865063,"{""rt"": null, ""stimulus"": ""<div style=\""font-size:65px;\"">  <p> </p>A</div>"", ""key_press"": null, ""test_part"": ""training"", ""next_elem"": ""A"", ""trial_type"": ""html-keyboard-response"", ""trial_index"": 35, ""time_elapsed"": 51671, ""internal_node_id"": ""0.0-5.0-0.0-0.0"", ""uniqueId"": ""A1P2RQ166VS5BT:358010RM5IQT30SB4L9JA4ISWRNVX9"", ""condition"": 0, ""counterbalance"": 0}"
A1P2RQ166VS5BT:358010RM5IQT30SB4L9JA4ISWRNVX9,36,1580528866169,"{""rt"": null, ""stimulus"": ""<div style=\""font-size:65px;\"">  <p> </p>A</div>"", ""key_press"": null, ""test_part"": ""training"", ""next_elem"": ""A"", ""trial_type"": ""html-keyboard-response"", ""trial_index"": 36, ""time_elapsed"": 52777, ""internal_node_id"": ""0.0-5.0-0.0-0.1"", ""uniqueId"": ""A1P2RQ166VS5BT:358010RM5IQT30SB4L9JA4ISWRNVX9"", ""condition"": 0, ""counterbalance"": 0}"
A1P2RQ166VS5BT:358010RM5IQT30SB4L9JA4ISWRNVX9,37,1580528867273,"{""rt"": null, ""stimulus"": ""<div style=\""font-size:65px;\"">  <p> </p>A</div>"", ""key_press"": null, ""test_part"": ""training"", ""next_elem"": ""A"", ""trial_type"": ""html-keyboard-response"", ""trial_index"": 37, ""time_elapsed"": 53881, ""internal_node_id"": ""0.0-5.0-0.0-0.2"", ""uniqueId"": ""A1P2RQ166VS5BT:358010RM5IQT30SB4L9JA4ISWRNVX9"", ""condition"": 0, ""counterbalance"": 0}"
A1P2RQ166VS5BT:358010RM5IQT30SB4L9JA4ISWRNVX9,38,1580528868376,"{""rt"": null, ""stimulus"": ""<div style=\""font-size:65px;\"">  <p> </p>A</div>"", ""key_press"": null, ""test_part"": ""training"", ""next_elem"": ""A"", ""trial_type"": ""html-keyboard-response"", ""trial_index"": 38, ""time_elapsed"": 54984, ""internal_node_id"": ""0.0-5.0-0.0-0.3"", ""uniqueId"": ""A1P2RQ166VS5BT:358010RM5IQT30SB4L9JA4ISWRNVX9"", ""condition"": 0, ""counterbalance"": 0}"
A1P2RQ166VS5BT:358010RM5IQT30SB4L9JA4ISWRNVX9,39,1580528869482,"{""rt"": null, ""stimulus"": ""<div style=\""font-size:65px;\"">  <p> </p>A</div>"", ""key_press"": null, ""test_part"": ""training"", ""next_elem"": ""A"", ""trial_type"": ""html-keyboard-response"", ""trial_index"": 39, ""time_elapsed"": 56090, ""internal_node_id"": ""0.0-5.0-0.0-0.4"", ""uniqueId"": ""A1P2RQ166VS5BT:358010RM5IQT30SB4L9JA4ISWRNVX9"", ""condition"": 0, ""counterbalance"": 0}"
A1P2RQ166VS5BT:358010RM5IQT30SB4L9JA4ISWRNVX9,40,1580528870584,"{""rt"": null, ""stimulus"": ""<div style=\""font-size:65px;\"">  <p> </p>A</div>"", ""key_press"": null, ""test_part"": ""training"", ""next_elem"": ""A"", ""trial_type"": ""html-keyboard-response"", ""trial_index"": 40, ""time_elapsed"": 57192, ""internal_node_id"": ""0.0-5.0-0.0-0.5"", ""uniqueId"": ""A1P2RQ166VS5BT:358010RM5IQT30SB4L9JA4ISWRNVX9"", ""condition"": 0, ""counterbalance"": 0}"
A1P2RQ166VS5BT:358010RM5IQT30SB4L9JA4ISWRNVX9,41,1580528871687,"{""rt"": null, ""stimulus"": ""<div style=\""font-size:65px;\"">  <p> </p>A</div>"", ""key_press"": null, ""test_part"": ""training"", ""next_elem"": ""A"", ""trial_type"": ""html-keyboard-response"", ""trial_index"": 41, ""time_elapsed"": 58294, ""internal_node_id"": ""0.0-5.0-0.0-0.6"", ""uniqueId"": ""A1P2RQ166VS5BT:358010RM5IQT30SB4L9JA4ISWRNVX9"", ""condition"": 0, ""counterbalance"": 0}"
A1P2RQ166VS5BT:358010RM5IQT30SB4L9JA4ISWRNVX9,42,1580528872788,"{""rt"": null, ""stimulus"": ""<div style=\""font-size:65px;\"">  <p> </p>A</div>"", ""key_press"": null, ""test_part"": ""training"", ""next_elem"": ""A"", ""trial_type"": ""html-keyboard-response"", ""trial_index"": 42, ""time_elapsed"": 59396, ""internal_node_id"": ""0.0-5.0-0.0-0.7"", ""uniqueId"": ""A1P2RQ166VS5BT:358010RM5IQT30SB4L9JA4ISWRNVX9"", ""condition"": 0, ""counterbalance"": 0}"
A1P2RQ166VS5BT:358010RM5IQT30SB4L9JA4ISWRNVX9,43,1580528873891,"{""rt"": null, ""stimulus"": ""<div style=\""font-size:65px;\"">  <p> </p>A</div>"", ""key_press"": null, ""test_part"": ""training"", ""next_elem"": ""A"", ""trial_type"": ""html-keyboard-response"", ""trial_index"": 43, ""time_elapsed"": 60499, ""internal_node_id"": ""0.0-5.0-0.0-0.8"", ""uniqueId"": ""A1P2RQ166VS5BT:358010RM5IQT30SB4L9JA4ISWRNVX9"", ""condition"": 0, ""counterbalance"": 0}"
A1P2RQ166VS5BT:358010RM5IQT30SB4L9JA4ISWRNVX9,44,1580528874993,"{""rt"": null, ""stimulus"": ""<div style=\""font-size:65px;\"">  <p> </p>A</div>"", ""key_press"": null, ""test_part"": ""training"", ""next_elem"": ""A"", ""trial_type"": ""html-keyboard-response"", ""trial_index"": 44, ""time_elapsed"": 61601, ""internal_node_id"": ""0.0-5.0-0.0-0.9"", ""uniqueId"": ""A1P2RQ166VS5BT:358010RM5IQT30SB4L9JA4ISWRNVX9"", ""condition"": 0, ""counterbalance"": 0}"
A1P2RQ166VS5BT:358010RM5IQT30SB4L9JA4ISWRNVX9,45,1580528876099,"{""rt"": null, ""stimulus"": ""<div style=\""font-size:65px;\"">  <p> </p>A</div>"", ""key_press"": null, ""test_part"": ""training"", ""next_elem"": ""A"", ""trial_type"": ""html-keyboard-response"", ""trial_index"": 45, ""time_elapsed"": 62707, ""internal_node_id"": ""0.0-5.0-0.0-0.10"", ""uniqueId"": ""A1P2RQ166VS5BT:358010RM5IQT30SB4L9JA4ISWRNVX9"", ""condition"": 0, ""counterbalance"": 0}"
A1P2RQ166VS5BT:358010RM5IQT30SB4L9JA4ISWRNVX9,46,1580528877205,"{""rt"": null, ""stimulus"": ""<div style=\""font-size:65px;\"">  <p> </p>A</div>"", ""key_press"": null, ""test_part"": ""training"", ""next_elem"": ""A"", ""trial_type"": ""html-keyboard-response"", ""trial_index"": 46, ""time_elapsed"": 63812, ""internal_node_id"": ""0.0-5.0-0.0-0.11"", ""uniqueId"": ""A1P2RQ166VS5BT:358010RM5IQT30SB4L9JA4ISWRNVX9"", ""condition"": 0, ""counterbalance"": 0}"
A1P2RQ166VS5BT:358010RM5IQT30SB4L9JA4ISWRNVX9,47,1580528878308,"{""rt"": null, ""stimulus"": ""<div style=\""font-size:65px;\"">  <p> </p>A</div>"", ""key_press"": null, ""test_part"": ""training"", ""next_elem"": ""A"", ""trial_type"": ""html-keyboard-response"", ""trial_index"": 47, ""time_elapsed"": 64916, ""internal_node_id"": ""0.0-5.0-0.0-0.12"", ""uniqueId"": ""A1P2RQ166VS5BT:358010RM5IQT30SB4L9JA4ISWRNVX9"", ""condition"": 0, ""counterbalance"": 0}"
A1P2RQ166VS5BT:358010RM5IQT30SB4L9JA4ISWRNVX9,48,1580528879414,"{""rt"": null, ""stimulus"": ""<div style=\""font-size:65px;\"">  <p> </p>A</div>"", ""key_press"": null, ""test_part"": ""training"", ""next_elem"": ""A"", ""trial_type"": ""html-keyboard-response"", ""trial_index"": 48, ""time_elapsed"": 66022, ""internal_node_id"": ""0.0-5.0-0.0-0.13"", ""uniqueId"": ""A1P2RQ166VS5BT:358010RM5IQT30SB4L9JA4ISWRNVX9"", ""condition"": 0, ""counterbalance"": 0}"
A1P2RQ166VS5BT:358010RM5IQT30SB4L9JA4ISWRNVX9,49,1580528880516,"{""rt"": null, ""stimulus"": ""<div style=\""font-size:65px;\"">  <p> </p>A</div>"", ""key_press"": null, ""test_part"": ""training"", ""next_elem"": ""A"", ""trial_type"": ""html-keyboard-response"", ""trial_index"": 49, ""time_elapsed"": 67124, ""internal_node_id"": ""0.0-5.0-0.0-0.14"", ""uniqueId"": ""A1P2RQ166VS5BT:358010RM5IQT30SB4L9JA4ISWRNVX9"", ""condition"": 0, ""counterbalance"": 0}"
A1P2RQ166VS5BT:358010RM5IQT30SB4L9JA4ISWRNVX9,50,1580528881620,"{""rt"": null, ""stimulus"": ""<div style=\""font-size:65px;\"">  <p> </p>A</div>"", ""key_press"": null, ""test_part"": ""training"", ""next_elem"": ""A"", ""trial_type"": ""html-keyboard-response"", ""trial_index"": 50, ""time_elapsed"": 68228, ""internal_node_id"": ""0.0-5.0-0.0-0.15"", ""uniqueId"": ""A1P2RQ166VS5BT:358010RM5IQT30SB4L9JA4ISWRNVX9"", ""condition"": 0, ""counterbalance"": 0}"
A1P2RQ166VS5BT:358010RM5IQT30SB4L9JA4ISWRNVX9,51,1580528882723,"{""rt"": null, ""stimulus"": ""<div style=\""font-size:65px;\"">  <p> </p>A</div>"", ""key_press"": null, ""test_part"": ""training"", ""next_elem"": ""A"", ""trial_type"": ""html-keyboard-response"", ""trial_index"": 51, ""time_elapsed"": 69331, ""internal_node_id"": ""0.0-5.0-0.0-0.16"", ""uniqueId"": ""A1P2RQ166VS5BT:358010RM5IQT30SB4L9JA4ISWRNVX9"", ""condition"": 0, ""counterbalance"": 0}"
A1P2RQ166VS5BT:358010RM5IQT30SB4L9JA4ISWRNVX9,52,1580528883829,"{""rt"": null, ""stimulus"": ""<div style=\""font-size:65px;\"">  <p> </p>A</div>"", ""key_press"": null, ""test_part"": ""training"", ""next_elem"": ""A"", ""trial_type"": ""html-keyboard-response"", ""trial_index"": 52, ""time_elapsed"": 70437, ""internal_node_id"": ""0.0-5.0-0.0-0.17"", ""uniqueId"": ""A1P2RQ166VS5BT:358010RM5IQT30SB4L9JA4ISWRNVX9"", ""condition"": 0, ""counterbalance"": 0}"
A1P2RQ166VS5BT:358010RM5IQT30SB4L9JA4ISWRNVX9,53,1580528884932,"{""rt"": null, ""stimulus"": ""<div style=\""font-size:65px;\"">  <p> </p>A</div>"", ""key_press"": null, ""test_part"": ""training"", ""next_elem"": ""A"", ""trial_type"": ""html-keyboard-response"", ""trial_index"": 53, ""time_elapsed"": 71540, ""internal_node_id"": ""0.0-5.0-0.0-0.18"", ""uniqueId"": ""A1P2RQ166VS5BT:358010RM5IQT30SB4L9JA4ISWRNVX9"", ""condition"": 0, ""counterbalance"": 0}"
A1P2RQ166VS5BT:358010RM5IQT30SB4L9JA4ISWRNVX9,54,1580528886039,"{""rt"": null, ""stimulus"": ""<div style=\""font-size:65px;\"">  <p> </p>A</div>"", ""key_press"": null, ""test_part"": ""training"", ""next_elem"": ""A"", ""trial_type"": ""html-keyboard-response"", ""trial_index"": 54, ""time_elapsed"": 72646, ""internal_node_id"": ""0.0-5.0-0.0-0.19"", ""uniqueId"": ""A1P2RQ166VS5BT:358010RM5IQT30SB4L9JA4ISWRNVX9"", ""condition"": 0, ""counterbalance"": 0}"
A1P2RQ166VS5BT:358010RM5IQT30SB4L9JA4ISWRNVX9,55,1580528887145,"{""rt"": null, ""stimulus"": ""<div style=\""font-size:65px;\"">  <p> </p>A</div>"", ""key_press"": null, ""test_part"": ""training"", ""next_elem"": ""A"", ""trial_type"": ""html-keyboard-response"", ""trial_index"": 55, ""time_elapsed"": 73753, ""internal_node_id"": ""0.0-5.0-0.0-0.20"", ""uniqueId"": ""A1P2RQ166VS5BT:358010RM5IQT30SB4L9JA4ISWRNVX9"", ""condition"": 0, ""counterbalance"": 0}"
A1P2RQ166VS5BT:358010RM5IQT30SB4L9JA4ISWRNVX9,56,1580528888249,"{""rt"": null, ""stimulus"": ""<div style=\""font-size:65px;\"">  <p> </p>A</div>"", ""key_press"": null, ""test_part"": ""training"", ""next_elem"": ""A"", ""trial_type"": ""html-keyboard-response"", ""trial_index"": 56, ""time_elapsed"": 74857, ""internal_node_id"": ""0.0-5.0-0.0-0.21"", ""uniqueId"": ""A1P2RQ166VS5BT:358010RM5IQT30SB4L9JA4ISWRNVX9"", ""condition"": 0, ""counterbalance"": 0}"
A1P2RQ166VS5BT:358010RM5IQT30SB4L9JA4ISWRNVX9,57,1580528889356,"{""rt"": null, ""stimulus"": ""<div style=\""font-size:65px;\"">  <p> </p>A</div>"", ""key_press"": null, ""test_part"": ""training"", ""next_elem"": ""A"", ""trial_type"": ""html-keyboard-response"", ""trial_index"": 57, ""time_elapsed"": 75963, ""internal_node_id"": ""0.0-5.0-0.0-0.22"", ""uniqueId"": ""A1P2RQ166VS5BT:358010RM5IQT30SB4L9JA4ISWRNVX9"", ""condition"": 0, ""counterbalance"": 0}"
A1P2RQ166VS5BT:358010RM5IQT30SB4L9JA4ISWRNVX9,58,1580528890459,"{""rt"": null, ""stimulus"": ""<div style=\""font-size:65px;\"">  <p> </p>A</div>"", ""key_press"": null, ""test_part"": ""training"", ""next_elem"": ""A"", ""trial_type"": ""html-keyboard-response"", ""trial_index"": 58, ""time_elapsed"": 77067, ""internal_node_id"": ""0.0-5.0-0.0-0.23"", ""uniqueId"": ""A1P2RQ166VS5BT:358010RM5IQT30SB4L9JA4ISWRNVX9"", ""condition"": 0, ""counterbalance"": 0}"
A1P2RQ166VS5BT:358010RM5IQT30SB4L9JA4ISWRNVX9,59,1580528891562,"{""rt"": null, ""stimulus"": ""<div style=\""font-size:65px;\"">  <p> </p>A</div>"", ""key_press"": null, ""test_part"": ""training"", ""next_elem"": ""A"", ""trial_type"": ""html-keyboard-response"", ""trial_index"": 59, ""time_elapsed"": 78170, ""internal_node_id"": ""0.0-5.0-0.0-0.24"", ""uniqueId"": ""A1P2RQ166VS5BT:358010RM5IQT30SB4L9JA4ISWRNVX9"", ""condition"": 0, ""counterbalance"": 0}"
A1P2RQ166VS5BT:358010RM5IQT30SB4L9JA4ISWRNVX9,60,1580528892670,"{""rt"": null, ""stimulus"": ""<div style=\""font-size:65px;\"">  <p> </p>A</div>"", ""key_press"": null, ""test_part"": ""training"", ""next_elem"": ""A"", ""trial_type"": ""html-keyboard-response"", ""trial_index"": 60, ""time_elapsed"": 79278, ""internal_node_id"": ""0.0-5.0-0.0-0.25"", ""uniqueId"": ""A1P2RQ166VS5BT:358010RM5IQT30SB4L9JA4ISWRNVX9"", ""condition"": 0, ""counterbalance"": 0}"
A1P2RQ166VS5BT:358010RM5IQT30SB4L9JA4ISWRNVX9,61,1580528893773,"{""rt"": null, ""stimulus"": ""<div style=\""font-size:65px;\"">  <p> </p>A</div>"", ""key_press"": null, ""test_part"": ""training"", ""next_elem"": ""A"", ""trial_type"": ""html-keyboard-response"", ""trial_index"": 61, ""time_elapsed"": 80381, ""internal_node_id"": ""0.0-5.0-0.0-0.26"", ""uniqueId"": ""A1P2RQ166VS5BT:358010RM5IQT30SB4L9JA4ISWRNVX9"", ""condition"": 0, ""counterbalance"": 0}"
A1P2RQ166VS5BT:358010RM5IQT30SB4L9JA4ISWRNVX9,62,1580528894882,"{""rt"": null, ""stimulus"": ""<div style=\""font-size:65px;\"">  <p> </p>A</div>"", ""key_press"": null, ""test_part"": ""training"", ""next_elem"": ""A"", ""trial_type"": ""html-keyboard-response"", ""trial_index"": 62, ""time_elapsed"": 81489, ""internal_node_id"": ""0.0-5.0-0.0-0.27"", ""uniqueId"": ""A1P2RQ166VS5BT:358010RM5IQT30SB4L9JA4ISWRNVX9"", ""condition"": 0, ""counterbalance"": 0}"
A1P2RQ166VS5BT:358010RM5IQT30SB4L9JA4ISWRNVX9,63,1580528895986,"{""rt"": null, ""stimulus"": ""<div style=\""font-size:65px;\"">  <p> </p>A</div>"", ""key_press"": null, ""test_part"": ""training"", ""next_elem"": ""A"", ""trial_type"": ""html-keyboard-response"", ""trial_index"": 63, ""time_elapsed"": 82594, ""internal_node_id"": ""0.0-5.0-0.0-0.28"", ""uniqueId"": ""A1P2RQ166VS5BT:358010RM5IQT30SB4L9JA4ISWRNVX9"", ""condition"": 0, ""counterbalance"": 0}"
A1P2RQ166VS5BT:358010RM5IQT30SB4L9JA4ISWRNVX9,64,1580528900582,"{""rt"": 4294.054999947548, ""responses"": ""{\""Q0\"":\""A\""}"", ""question_order"": ""[0]"", ""test_part"": ""prediction"", ""trial_type"": ""survey-multi-choice"", ""trial_index"": 64, ""time_elapsed"": 87190, ""internal_node_id"": ""0.0-5.0-1.0"", ""uniqueId"": ""A1P2RQ166VS5BT:358010RM5IQT30SB4L9JA4ISWRNVX9"", ""condition"": 0, ""counterbalance"": 0}"
A1P2RQ166VS5BT:358010RM5IQT30SB4L9JA4ISWRNVX9,65,1580528901871,"{""rt"": 1285.7050001621246, ""stimulus"": ""Correct!"", ""button_pressed"": ""0"", ""test_part"": ""feedback"", ""trial_type"": ""html-button-response"", ""trial_index"": 65, ""time_elapsed"": 88479, ""internal_node_id"": ""0.0-5.0-2.0"", ""uniqueId"": ""A1P2RQ166VS5BT:358010RM5IQT30SB4L9JA4ISWRNVX9"", ""condition"": 0, ""counterbalance"": 0}"
A1P2RQ166VS5BT:358010RM5IQT30SB4L9JA4ISWRNVX9,66,1580528902672,"{""rt"": null, ""stimulus"": ""<div style=\""font-size:65px;\"">A</div>"", ""key_press"": null, ""test_part"": ""training"", ""next_elem"": ""B"", ""trial_type"": ""html-keyboard-response"", ""trial_index"": 66, ""time_elapsed"": 89280, ""internal_node_id"": ""0.0-6.0-0.0-0.0"", ""uniqueId"": ""A1P2RQ166VS5BT:358010RM5IQT30SB4L9JA4ISWRNVX9"", ""condition"": 0, ""counterbalance"": 0}"
A1P2RQ166VS5BT:358010RM5IQT30SB4L9JA4ISWRNVX9,67,1580528903775,"{""rt"": null, ""stimulus"": ""<div style=\""font-size:65px;\"">B</div>"", ""key_press"": null, ""test_part"": ""training"", ""next_elem"": ""B"", ""trial_type"": ""html-keyboard-response"", ""trial_index"": 67, ""time_elapsed"": 90383, ""internal_node_id"": ""0.0-6.0-0.0-0.1"", ""uniqueId"": ""A1P2RQ166VS5BT:358010RM5IQT30SB4L9JA4ISWRNVX9"", ""condition"": 0, ""counterbalance"": 0}"
A1P2RQ166VS5BT:358010RM5IQT30SB4L9JA4ISWRNVX9,68,1580528904881,"{""rt"": null, ""stimulus"": ""<div style=\""font-size:65px;\"">B</div>"", ""key_press"": null, ""test_part"": ""training"", ""next_elem"": ""C"", ""trial_type"": ""html-keyboard-response"", ""trial_index"": 68, ""time_elapsed"": 91486, ""internal_node_id"": ""0.0-6.0-0.0-0.2"", ""uniqueId"": ""A1P2RQ166VS5BT:358010RM5IQT30SB4L9JA4ISWRNVX9"", ""condition"": 0, ""counterbalance"": 0}"
A1P2RQ166VS5BT:358010RM5IQT30SB4L9JA4ISWRNVX9,69,1580528905986,"{""rt"": null, ""stimulus"": ""<div style=\""font-size:65px;\"">C</div>"", ""key_press"": null, ""test_part"": ""training"", ""next_elem"": ""B"", ""trial_type"": ""html-keyboard-response"", ""trial_index"": 69, ""time_elapsed"": 92594, ""internal_node_id"": ""0.0-6.0-0.0-0.3"", ""uniqueId"": ""A1P2RQ166VS5BT:358010RM5IQT30SB4L9JA4ISWRNVX9"", ""condition"": 0, ""counterbalance"": 0}"
A1P2RQ166VS5BT:358010RM5IQT30SB4L9JA4ISWRNVX9,70,1580528907087,"{""rt"": null, ""stimulus"": ""<div style=\""font-size:65px;\"">B</div>"", ""key_press"": null, ""test_part"": ""training"", ""next_elem"": ""A"", ""trial_type"": ""html-keyboard-response"", ""trial_index"": 70, ""time_elapsed"": 93695, ""internal_node_id"": ""0.0-6.0-0.0-0.4"", ""uniqueId"": ""A1P2RQ166VS5BT:358010RM5IQT30SB4L9JA4ISWRNVX9"", ""condition"": 0, ""counterbalance"": 0}"
A1P2RQ166VS5BT:358010RM5IQT30SB4L9JA4ISWRNVX9,71,1580528908190,"{""rt"": null, ""stimulus"": ""<div style=\""font-size:65px;\"">A</div>"", ""key_press"": null, ""test_part"": ""training"", ""next_elem"": ""C"", ""trial_type"": ""html-keyboard-response"", ""trial_index"": 71, ""time_elapsed"": 94798, ""internal_node_id"": ""0.0-6.0-0.0-0.5"", ""uniqueId"": ""A1P2RQ166VS5BT:358010RM5IQT30SB4L9JA4ISWRNVX9"", ""condition"": 0, ""counterbalance"": 0}"
A1P2RQ166VS5BT:358010RM5IQT30SB4L9JA4ISWRNVX9,72,1580528909296,"{""rt"": null, ""stimulus"": ""<div style=\""font-size:65px;\"">C</div>"", ""key_press"": null, ""test_part"": ""training"", ""next_elem"": ""C"", ""trial_type"": ""html-keyboard-response"", ""trial_index"": 72, ""time_elapsed"": 95904, ""internal_node_id"": ""0.0-6.0-0.0-0.6"", ""uniqueId"": ""A1P2RQ166VS5BT:358010RM5IQT30SB4L9JA4ISWRNVX9"", ""condition"": 0, ""counterbalance"": 0}"
A1P2RQ166VS5BT:358010RM5IQT30SB4L9JA4ISWRNVX9,73,1580528910401,"{""rt"": null, ""stimulus"": ""<div style=\""font-size:65px;\"">C</div>"", ""key_press"": null, ""test_part"": ""training"", ""next_elem"": ""B"", ""trial_type"": ""html-keyboard-response"", ""trial_index"": 73, ""time_elapsed"": 97009, ""internal_node_id"": ""0.0-6.0-0.0-0.7"", ""uniqueId"": ""A1P2RQ166VS5BT:358010RM5IQT30SB4L9JA4ISWRNVX9"", ""condition"": 0, ""counterbalance"": 0}"
A1P2RQ166VS5BT:358010RM5IQT30SB4L9JA4ISWRNVX9,74,1580528911506,"{""rt"": null, ""stimulus"": ""<div style=\""font-size:65px;\"">B</div>"", ""key_press"": null, ""test_part"": ""training"", ""next_elem"": ""A"", ""trial_type"": ""html-keyboard-response"", ""trial_index"": 74, ""time_elapsed"": 98114, ""internal_node_id"": ""0.0-6.0-0.0-0.8"", ""uniqueId"": ""A1P2RQ166VS5BT:358010RM5IQT30SB4L9JA4ISWRNVX9"", ""condition"": 0, ""counterbalance"": 0}"
A1P2RQ166VS5BT:358010RM5IQT30SB4L9JA4ISWRNVX9,75,1580528912608,"{""rt"": null, ""stimulus"": ""<div style=\""font-size:65px;\"">A</div>"", ""key_press"": null, ""test_part"": ""training"", ""next_elem"": ""C"", ""trial_type"": ""html-keyboard-response"", ""trial_index"": 75, ""time_elapsed"": 99216, ""internal_node_id"": ""0.0-6.0-0.0-0.9"", ""uniqueId"": ""A1P2RQ166VS5BT:358010RM5IQT30SB4L9JA4ISWRNVX9"", ""condition"": 0, ""counterbalance"": 0}"
A1P2RQ166VS5BT:358010RM5IQT30SB4L9JA4ISWRNVX9,76,1580528913711,"{""rt"": null, ""stimulus"": ""<div style=\""font-size:65px;\"">C</div>"", ""key_press"": null, ""test_part"": ""training"", ""next_elem"": ""B"", ""trial_type"": ""html-keyboard-response"", ""trial_index"": 76, ""time_elapsed"": 100319, ""internal_node_id"": ""0.0-6.0-0.0-0.10"", ""uniqueId"": ""A1P2RQ166VS5BT:358010RM5IQT30SB4L9JA4ISWRNVX9"", ""condition"": 0, ""counterbalance"": 0}"
A1P2RQ166VS5BT:358010RM5IQT30SB4L9JA4ISWRNVX9,77,1580528914815,"{""rt"": null, ""stimulus"": ""<div style=\""font-size:65px;\"">B</div>"", ""key_press"": null, ""test_part"": ""training"", ""next_elem"": ""C"", ""trial_type"": ""html-keyboard-response"", ""trial_index"": 77, ""time_elapsed"": 101423, ""internal_node_id"": ""0.0-6.0-0.0-0.11"", ""uniqueId"": ""A1P2RQ166VS5BT:358010RM5IQT30SB4L9JA4ISWRNVX9"", ""condition"": 0, ""counterbalance"": 0}"
A1P2RQ166VS5BT:358010RM5IQT30SB4L9JA4ISWRNVX9,78,1580528915920,"{""rt"": null, ""stimulus"": ""<div style=\""font-size:65px;\"">C</div>"", ""key_press"": null, ""test_part"": ""training"", ""next_elem"": ""B"", ""trial_type"": ""html-keyboard-response"", ""trial_index"": 78, ""time_elapsed"": 102528, ""internal_node_id"": ""0.0-6.0-0.0-0.12"", ""uniqueId"": ""A1P2RQ166VS5BT:358010RM5IQT30SB4L9JA4ISWRNVX9"", ""condition"": 0, ""counterbalance"": 0}"
A1P2RQ166VS5BT:358010RM5IQT30SB4L9JA4ISWRNVX9,79,1580528917023,"{""rt"": null, ""stimulus"": ""<div style=\""font-size:65px;\"">B</div>"", ""key_press"": null, ""test_part"": ""training"", ""next_elem"": ""A"", ""trial_type"": ""html-keyboard-response"", ""trial_index"": 79, ""time_elapsed"": 103631, ""internal_node_id"": ""0.0-6.0-0.0-0.13"", ""uniqueId"": ""A1P2RQ166VS5BT:358010RM5IQT30SB4L9JA4ISWRNVX9"", ""condition"": 0, ""counterbalance"": 0}"
A1P2RQ166VS5BT:358010RM5IQT30SB4L9JA4ISWRNVX9,80,1580528918125,"{""rt"": null, ""stimulus"": ""<div style=\""font-size:65px;\"">A</div>"", ""key_press"": null, ""test_part"": ""training"", ""next_elem"": ""A "", ""trial_type"": ""html-keyboard-response"", ""trial_index"": 80, ""time_elapsed"": 104733, ""internal_node_id"": ""0.0-6.0-0.0-0.14"", ""uniqueId"": ""A1P2RQ166VS5BT:358010RM5IQT30SB4L9JA4ISWRNVX9"", ""condition"": 0, ""counterbalance"": 0}"
A1P2RQ166VS5BT:358010RM5IQT30SB4L9JA4ISWRNVX9,81,1580528919233,"{""rt"": null, ""stimulus"": ""<div style=\""font-size:65px;\"">A   </div>"", ""key_press"": null, ""test_part"": ""training"", ""next_elem"": ""B"", ""trial_type"": ""html-keyboard-response"", ""trial_index"": 81, ""time_elapsed"": 105841, ""internal_node_id"": ""0.0-6.0-0.0-0.15"", ""uniqueId"": ""A1P2RQ166VS5BT:358010RM5IQT30SB4L9JA4ISWRNVX9"", ""condition"": 0, ""counterbalance"": 0}"
A1P2RQ166VS5BT:358010RM5IQT30SB4L9JA4ISWRNVX9,82,1580528920341,"{""rt"": null, ""stimulus"": ""<div style=\""font-size:65px;\"">B</div>"", ""key_press"": null, ""test_part"": ""training"", ""next_elem"": ""C"", ""trial_type"": ""html-keyboard-response"", ""trial_index"": 82, ""time_elapsed"": 106948, ""internal_node_id"": ""0.0-6.0-0.0-0.16"", ""uniqueId"": ""A1P2RQ166VS5BT:358010RM5IQT30SB4L9JA4ISWRNVX9"", ""condition"": 0, ""counterbalance"": 0}"
A1P2RQ166VS5BT:358010RM5IQT30SB4L9JA4ISWRNVX9,83,1580528921446,"{""rt"": null, ""stimulus"": ""<div style=\""font-size:65px;\"">C</div>"", ""key_press"": null, ""test_part"": ""training"", ""next_elem"": ""C"", ""trial_type"": ""html-keyboard-response"", ""trial_index"": 83, ""time_elapsed"": 108054, ""internal_node_id"": ""0.0-6.0-0.0-0.17"", ""uniqueId"": ""A1P2RQ166VS5BT:358010RM5IQT30SB4L9JA4ISWRNVX9"", ""condition"": 0, ""counterbalance"": 0}"
A1P2RQ166VS5BT:358010RM5IQT30SB4L9JA4ISWRNVX9,84,1580528922551,"{""rt"": null, ""stimulus"": ""<div style=\""font-size:65px;\"">C</div>"", ""key_press"": null, ""test_part"": ""training"", ""next_elem"": ""B"", ""trial_type"": ""html-keyboard-response"", ""trial_index"": 84, ""time_elapsed"": 109159, ""internal_node_id"": ""0.0-6.0-0.0-0.18"", ""uniqueId"": ""A1P2RQ166VS5BT:358010RM5IQT30SB4L9JA4ISWRNVX9"", ""condition"": 0, ""counterbalance"": 0}"
A1P2RQ166VS5BT:358010RM5IQT30SB4L9JA4ISWRNVX9,85,1580528923658,"{""rt"": null, ""stimulus"": ""<div style=\""font-size:65px;\"">B</div>"", ""key_press"": null, ""test_part"": ""training"", ""next_elem"": ""B"", ""trial_type"": ""html-keyboard-response"", ""trial_index"": 85, ""time_elapsed"": 110266, ""internal_node_id"": ""0.0-6.0-0.0-0.19"", ""uniqueId"": ""A1P2RQ166VS5BT:358010RM5IQT30SB4L9JA4ISWRNVX9"", ""condition"": 0, ""counterbalance"": 0}"
A1P2RQ166VS5BT:358010RM5IQT30SB4L9JA4ISWRNVX9,86,1580528924768,"{""rt"": null, ""stimulus"": ""<div style=\""font-size:65px;\"">B</div>"", ""key_press"": null, ""test_part"": ""training"", ""next_elem"": ""A"", ""trial_type"": ""html-keyboard-response"", ""trial_index"": 86, ""time_elapsed"": 111374, ""internal_node_id"": ""0.0-6.0-0.0-0.20"", ""uniqueId"": ""A1P2RQ166VS5BT:358010RM5IQT30SB4L9JA4ISWRNVX9"", ""condition"": 0, ""counterbalance"": 0}"
A1P2RQ166VS5BT:358010RM5IQT30SB4L9JA4ISWRNVX9,87,1580528925875,"{""rt"": null, ""stimulus"": ""<div style=\""font-size:65px;\"">A</div>"", ""key_press"": null, ""test_part"": ""training"", ""next_elem"": ""A"", ""trial_type"": ""html-keyboard-response"", ""trial_index"": 87, ""time_elapsed"": 112483, ""internal_node_id"": ""0.0-6.0-0.0-0.21"", ""uniqueId"": ""A1P2RQ166VS5BT:358010RM5IQT30SB4L9JA4ISWRNVX9"", ""condition"": 0, ""counterbalance"": 0}"
A1P2RQ166VS5BT:358010RM5IQT30SB4L9JA4ISWRNVX9,88,1580528926978,"{""rt"": null, ""stimulus"": ""<div style=\""font-size:65px;\"">A</div>"", ""key_press"": null, ""test_part"": ""training"", ""next_elem"": ""C"", ""trial_type"": ""html-keyboard-response"", ""trial_index"": 88, ""time_elapsed"": 113586, ""internal_node_id"": ""0.0-6.0-0.0-0.22"", ""uniqueId"": ""A1P2RQ166VS5BT:358010RM5IQT30SB4L9JA4ISWRNVX9"", ""condition"": 0, ""counterbalance"": 0}"
A1P2RQ166VS5BT:358010RM5IQT30SB4L9JA4ISWRNVX9,89,1580528928087,"{""rt"": null, ""stimulus"": ""<div style=\""font-size:65px;\"">C</div>"", ""key_press"": null, ""test_part"": ""training"", ""next_elem"": ""A"", ""trial_type"": ""html-keyboard-response"", ""trial_index"": 89, ""time_elapsed"": 114695, ""internal_node_id"": ""0.0-6.0-0.0-0.23"", ""uniqueId"": ""A1P2RQ166VS5BT:358010RM5IQT30SB4L9JA4ISWRNVX9"", ""condition"": 0, ""counterbalance"": 0}"
A1P2RQ166VS5BT:358010RM5IQT30SB4L9JA4ISWRNVX9,90,1580528929193,"{""rt"": null, ""stimulus"": ""<div style=\""font-size:65px;\"">A</div>"", ""key_press"": null, ""test_part"": ""training"", ""next_elem"": ""C"", ""trial_type"": ""html-keyboard-response"", ""trial_index"": 90, ""time_elapsed"": 115801, ""internal_node_id"": ""0.0-6.0-0.0-0.24"", ""uniqueId"": ""A1P2RQ166VS5BT:358010RM5IQT30SB4L9JA4ISWRNVX9"", ""condition"": 0, ""counterbalance"": 0}"
A1P2RQ166VS5BT:358010RM5IQT30SB4L9JA4ISWRNVX9,91,1580528930295,"{""rt"": null, ""stimulus"": ""<div style=\""font-size:65px;\"">C</div>"", ""key_press"": null, ""test_part"": ""training"", ""next_elem"": ""B"", ""trial_type"": ""html-keyboard-response"", ""trial_index"": 91, ""time_elapsed"": 116903, ""internal_node_id"": ""0.0-6.0-0.0-0.25"", ""uniqueId"": ""A1P2RQ166VS5BT:358010RM5IQT30SB4L9JA4ISWRNVX9"", ""condition"": 0, ""counterbalance"": 0}"
A1P2RQ166VS5BT:358010RM5IQT30SB4L9JA4ISWRNVX9,92,1580528931399,"{""rt"": null, ""stimulus"": ""<div style=\""font-size:65px;\"">B</div>"", ""key_press"": null, ""test_part"": ""training"", ""next_elem"": ""C"", ""trial_type"": ""html-keyboard-response"", ""trial_index"": 92, ""time_elapsed"": 118007, ""internal_node_id"": ""0.0-6.0-0.0-0.26"", ""uniqueId"": ""A1P2RQ166VS5BT:358010RM5IQT30SB4L9JA4ISWRNVX9"", ""condition"": 0, ""counterbalance"": 0}"
A1P2RQ166VS5BT:358010RM5IQT30SB4L9JA4ISWRNVX9,93,1580528932502,"{""rt"": null, ""stimulus"": ""<div style=\""font-size:65px;\"">C</div>"", ""key_press"": null, ""test_part"": ""training"", ""next_elem"": ""A"", ""trial_type"": ""html-keyboard-response"", ""trial_index"": 93, ""time_elapsed"": 119110, ""internal_node_id"": ""0.0-6.0-0.0-0.27"", ""uniqueId"": ""A1P2RQ166VS5BT:358010RM5IQT30SB4L9JA4ISWRNVX9"", ""condition"": 0, ""counterbalance"": 0}"
A1P2RQ166VS5BT:358010RM5IQT30SB4L9JA4ISWRNVX9,94,1580528933606,"{""rt"": null, ""stimulus"": ""<div style=\""font-size:65px;\"">A</div>"", ""key_press"": null, ""test_part"": ""training"", ""next_elem"": ""B"", ""trial_type"": ""html-keyboard-response"", ""trial_index"": 94, ""time_elapsed"": 120214, ""internal_node_id"": ""0.0-6.0-0.0-0.28"", ""uniqueId"": ""A1P2RQ166VS5BT:358010RM5IQT30SB4L9JA4ISWRNVX9"", ""condition"": 0, ""counterbalance"": 0}"
A1P2RQ166VS5BT:358010RM5IQT30SB4L9JA4ISWRNVX9,95,1580528937629,"{""rt"": 3718.3999998960644, ""responses"": ""{\""Q0\"":\""C\""}"", ""question_order"": ""[0]"", ""test_part"": ""prediction"", ""trial_type"": ""survey-multi-choice"", ""trial_index"": 95, ""time_elapsed"": 124237, ""internal_node_id"": ""0.0-6.0-1.0"", ""uniqueId"": ""A1P2RQ166VS5BT:358010RM5IQT30SB4L9JA4ISWRNVX9"", ""condition"": 0, ""counterbalance"": 0}"
A1P2RQ166VS5BT:358010RM5IQT30SB4L9JA4ISWRNVX9,96,1580528939022,"{""rt"": 1390.489999903366, ""stimulus"": ""Incorrect!<p> The correct choice was: B"", ""button_pressed"": ""0"", ""test_part"": ""feedback"", ""trial_type"": ""html-button-response"", ""trial_index"": 96, ""time_elapsed"": 125630, ""internal_node_id"": ""0.0-6.0-2.0"", ""uniqueId"": ""A1P2RQ166VS5BT:358010RM5IQT30SB4L9JA4ISWRNVX9"", ""condition"": 0, ""counterbalance"": 0}"
A1P2RQ166VS5BT:358010RM5IQT30SB4L9JA4ISWRNVX9,97,1580528941565,"{""rt"": 2541.6899998672307, ""stimulus"": ""<p> You are now ready to proceed with the actual experiment. It will take about 8min from now. </p>"", ""button_pressed"": ""0"", ""test_part"": ""instructions"", ""trial_type"": ""html-button-response"", ""trial_index"": 97, ""time_elapsed"": 128173, ""internal_node_id"": ""0.0-7.0"", ""uniqueId"": ""A1P2RQ166VS5BT:358010RM5IQT30SB4L9JA4ISWRNVX9"", ""condition"": 0, ""counterbalance"": 0}"
A1P2RQ166VS5BT:358010RM5IQT30SB4L9JA4ISWRNVX9,98,1580528942368,"{""rt"": null, ""stimulus"": ""<div style=\""font-size:65px;\"">A</div>"", ""key_press"": null, ""test_part"": ""test"", ""next_elem"": ""B"", ""trial_type"": ""html-keyboard-response"", ""trial_index"": 98, ""time_elapsed"": 128975, ""internal_node_id"": ""0.0-8.0-0.0-0.0"", ""uniqueId"": ""A1P2RQ166VS5BT:358010RM5IQT30SB4L9JA4ISWRNVX9"", ""condition"": 0, ""counterbalance"": 0}"
A1P2RQ166VS5BT:358010RM5IQT30SB4L9JA4ISWRNVX9,99,1580528943472,"{""rt"": null, ""stimulus"": ""<div style=\""font-size:65px;\"">B</div>"", ""key_press"": null, ""test_part"": ""test"", ""next_elem"": ""B"", ""trial_type"": ""html-keyboard-response"", ""trial_index"": 99, ""time_elapsed"": 130080, ""internal_node_id"": ""0.0-8.0-0.0-0.1"", ""uniqueId"": ""A1P2RQ166VS5BT:358010RM5IQT30SB4L9JA4ISWRNVX9"", ""condition"": 0, ""counterbalance"": 0}"
A1P2RQ166VS5BT:358010RM5IQT30SB4L9JA4ISWRNVX9,100,1580528944576,"{""rt"": null, ""stimulus"": ""<div style=\""font-size:65px;\"">B</div>"", ""key_press"": null, ""test_part"": ""test"", ""next_elem"": ""A"", ""trial_type"": ""html-keyboard-response"", ""trial_index"": 100, ""time_elapsed"": 131184, ""internal_node_id"": ""0.0-8.0-0.0-0.2"", ""uniqueId"": ""A1P2RQ166VS5BT:358010RM5IQT30SB4L9JA4ISWRNVX9"", ""condition"": 0, ""counterbalance"": 0}"
A1P2RQ166VS5BT:358010RM5IQT30SB4L9JA4ISWRNVX9,101,1580528945680,"{""rt"": null, ""stimulus"": ""<div style=\""font-size:65px;\"">A</div>"", ""key_press"": null, ""test_part"": ""test"", ""next_elem"": ""B"", ""trial_type"": ""html-keyboard-response"", ""trial_index"": 101, ""time_elapsed"": 132288, ""internal_node_id"": ""0.0-8.0-0.0-0.3"", ""uniqueId"": ""A1P2RQ166VS5BT:358010RM5IQT30SB4L9JA4ISWRNVX9"", ""condition"": 0, ""counterbalance"": 0}"
A1P2RQ166VS5BT:358010RM5IQT30SB4L9JA4ISWRNVX9,102,1580528946790,"{""rt"": null, ""stimulus"": ""<div style=\""font-size:65px;\"">B</div>"", ""key_press"": null, ""test_part"": ""test"", ""next_elem"": ""B"", ""trial_type"": ""html-keyboard-response"", ""trial_index"": 102, ""time_elapsed"": 133398, ""internal_node_id"": ""0.0-8.0-0.0-0.4"", ""uniqueId"": ""A1P2RQ166VS5BT:358010RM5IQT30SB4L9JA4ISWRNVX9"", ""condition"": 0, ""counterbalance"": 0}"
A1P2RQ166VS5BT:358010RM5IQT30SB4L9JA4ISWRNVX9,103,1580528947893,"{""rt"": null, ""stimulus"": ""<div style=\""font-size:65px;\"">B</div>"", ""key_press"": null, ""test_part"": ""test"", ""next_elem"": ""A"", ""trial_type"": ""html-keyboard-response"", ""trial_index"": 103, ""time_elapsed"": 134501, ""internal_node_id"": ""0.0-8.0-0.0-0.5"", ""uniqueId"": ""A1P2RQ166VS5BT:358010RM5IQT30SB4L9JA4ISWRNVX9"", ""condition"": 0, ""counterbalance"": 0}"
A1P2RQ166VS5BT:358010RM5IQT30SB4L9JA4ISWRNVX9,104,1580528948994,"{""rt"": null, ""stimulus"": ""<div style=\""font-size:65px;\"">A</div>"", ""key_press"": null, ""test_part"": ""test"", ""next_elem"": ""B"", ""trial_type"": ""html-keyboard-response"", ""trial_index"": 104, ""time_elapsed"": 135602, ""internal_node_id"": ""0.0-8.0-0.0-0.6"", ""uniqueId"": ""A1P2RQ166VS5BT:358010RM5IQT30SB4L9JA4ISWRNVX9"", ""condition"": 0, ""counterbalance"": 0}"
A1P2RQ166VS5BT:358010RM5IQT30SB4L9JA4ISWRNVX9,105,1580528950096,"{""rt"": null, ""stimulus"": ""<div style=\""font-size:65px;\"">B</div>"", ""key_press"": null, ""test_part"": ""test"", ""next_elem"": ""B"", ""trial_type"": ""html-keyboard-response"", ""trial_index"": 105, ""time_elapsed"": 136704, ""internal_node_id"": ""0.0-8.0-0.0-0.7"", ""uniqueId"": ""A1P2RQ166VS5BT:358010RM5IQT30SB4L9JA4ISWRNVX9"", ""condition"": 0, ""counterbalance"": 0}"
A1P2RQ166VS5BT:358010RM5IQT30SB4L9JA4ISWRNVX9,106,1580528951197,"{""rt"": null, ""stimulus"": ""<div style=\""font-size:65px;\"">B</div>"", ""key_press"": null, ""test_part"": ""test"", ""next_elem"": ""A"", ""trial_type"": ""html-keyboard-response"", ""trial_index"": 106, ""time_elapsed"": 137805, ""internal_node_id"": ""0.0-8.0-0.0-0.8"", ""uniqueId"": ""A1P2RQ166VS5BT:358010RM5IQT30SB4L9JA4ISWRNVX9"", ""condition"": 0, ""counterbalance"": 0}"
A1P2RQ166VS5BT:358010RM5IQT30SB4L9JA4ISWRNVX9,107,1580528952302,"{""rt"": null, ""stimulus"": ""<div style=\""font-size:65px;\"">A</div>"", ""key_press"": null, ""test_part"": ""test"", ""next_elem"": ""B"", ""trial_type"": ""html-keyboard-response"", ""trial_index"": 107, ""time_elapsed"": 138909, ""internal_node_id"": ""0.0-8.0-0.0-0.9"", ""uniqueId"": ""A1P2RQ166VS5BT:358010RM5IQT30SB4L9JA4ISWRNVX9"", ""condition"": 0, ""counterbalance"": 0}"
A1P2RQ166VS5BT:358010RM5IQT30SB4L9JA4ISWRNVX9,108,1580528953406,"{""rt"": null, ""stimulus"": ""<div style=\""font-size:65px;\"">B</div>"", ""key_press"": null, ""test_part"": ""test"", ""next_elem"": ""B"", ""trial_type"": ""html-keyboard-response"", ""trial_index"": 108, ""time_elapsed"": 140014, ""internal_node_id"": ""0.0-8.0-0.0-0.10"", ""uniqueId"": ""A1P2RQ166VS5BT:358010RM5IQT30SB4L9JA4ISWRNVX9"", ""condition"": 0, ""counterbalance"": 0}"
A1P2RQ166VS5BT:358010RM5IQT30SB4L9JA4ISWRNVX9,109,1580528954511,"{""rt"": null, ""stimulus"": ""<div style=\""font-size:65px;\"">B</div>"", ""key_press"": null, ""test_part"": ""test"", ""next_elem"": ""A"", ""trial_type"": ""html-keyboard-response"", ""trial_index"": 109, ""time_elapsed"": 141119, ""internal_node_id"": ""0.0-8.0-0.0-0.11"", ""uniqueId"": ""A1P2RQ166VS5BT:358010RM5IQT30SB4L9JA4ISWRNVX9"", ""condition"": 0, ""counterbalance"": 0}"
A1P2RQ166VS5BT:358010RM5IQT30SB4L9JA4ISWRNVX9,110,1580528955617,"{""rt"": null, ""stimulus"": ""<div style=\""font-size:65px;\"">A</div>"", ""key_press"": null, ""test_part"": ""test"", ""next_elem"": ""B"", ""trial_type"": ""html-keyboard-response"", ""trial_index"": 110, ""time_elapsed"": 142225, ""internal_node_id"": ""0.0-8.0-0.0-0.12"", ""uniqueId"": ""A1P2RQ166VS5BT:358010RM5IQT30SB4L9JA4ISWRNVX9"", ""condition"": 0, ""counterbalance"": 0}"
A1P2RQ166VS5BT:358010RM5IQT30SB4L9JA4ISWRNVX9,111,1580528956724,"{""rt"": null, ""stimulus"": ""<div style=\""font-size:65px;\"">B</div>"", ""key_press"": null, ""test_part"": ""test"", ""next_elem"": ""B"", ""trial_type"": ""html-keyboard-response"", ""trial_index"": 111, ""time_elapsed"": 143332, ""internal_node_id"": ""0.0-8.0-0.0-0.13"", ""uniqueId"": ""A1P2RQ166VS5BT:358010RM5IQT30SB4L9JA4ISWRNVX9"", ""condition"": 0, ""counterbalance"": 0}"
A1P2RQ166VS5BT:358010RM5IQT30SB4L9JA4ISWRNVX9,112,1580528957826,"{""rt"": null, ""stimulus"": ""<div style=\""font-size:65px;\"">B</div>"", ""key_press"": null, ""test_part"": ""test"", ""next_elem"": ""A"", ""trial_type"": ""html-keyboard-response"", ""trial_index"": 112, ""time_elapsed"": 144434, ""internal_node_id"": ""0.0-8.0-0.0-0.14"", ""uniqueId"": ""A1P2RQ166VS5BT:358010RM5IQT30SB4L9JA4ISWRNVX9"", ""condition"": 0, ""counterbalance"": 0}"
A1P2RQ166VS5BT:358010RM5IQT30SB4L9JA4ISWRNVX9,113,1580528958929,"{""rt"": null, ""stimulus"": ""<div style=\""font-size:65px;\"">A</div>"", ""key_press"": null, ""test_part"": ""test"", ""next_elem"": ""B"", ""trial_type"": ""html-keyboard-response"", ""trial_index"": 113, ""time_elapsed"": 145537, ""internal_node_id"": ""0.0-8.0-0.0-0.15"", ""uniqueId"": ""A1P2RQ166VS5BT:358010RM5IQT30SB4L9JA4ISWRNVX9"", ""condition"": 0, ""counterbalance"": 0}"
A1P2RQ166VS5BT:358010RM5IQT30SB4L9JA4ISWRNVX9,114,1580528960035,"{""rt"": null, ""stimulus"": ""<div style=\""font-size:65px;\"">B</div>"", ""key_press"": null, ""test_part"": ""test"", ""next_elem"": ""B"", ""trial_type"": ""html-keyboard-response"", ""trial_index"": 114, ""time_elapsed"": 146643, ""internal_node_id"": ""0.0-8.0-0.0-0.16"", ""uniqueId"": ""A1P2RQ166VS5BT:358010RM5IQT30SB4L9JA4ISWRNVX9"", ""condition"": 0, ""counterbalance"": 0}"
A1P2RQ166VS5BT:358010RM5IQT30SB4L9JA4ISWRNVX9,115,1580528961138,"{""rt"": null, ""stimulus"": ""<div style=\""font-size:65px;\"">B</div>"", ""key_press"": null, ""test_part"": ""test"", ""next_elem"": ""A"", ""trial_type"": ""html-keyboard-response"", ""trial_index"": 115, ""time_elapsed"": 147746, ""internal_node_id"": ""0.0-8.0-0.0-0.17"", ""uniqueId"": ""A1P2RQ166VS5BT:358010RM5IQT30SB4L9JA4ISWRNVX9"", ""condition"": 0, ""counterbalance"": 0}"
A1P2RQ166VS5BT:358010RM5IQT30SB4L9JA4ISWRNVX9,116,1580528962242,"{""rt"": null, ""stimulus"": ""<div style=\""font-size:65px;\"">A</div>"", ""key_press"": null, ""test_part"": ""test"", ""next_elem"": ""B"", ""trial_type"": ""html-keyboard-response"", ""trial_index"": 116, ""time_elapsed"": 148850, ""internal_node_id"": ""0.0-8.0-0.0-0.18"", ""uniqueId"": ""A1P2RQ166VS5BT:358010RM5IQT30SB4L9JA4ISWRNVX9"", ""condition"": 0, ""counterbalance"": 0}"
A1P2RQ166VS5BT:358010RM5IQT30SB4L9JA4ISWRNVX9,117,1580528963348,"{""rt"": null, ""stimulus"": ""<div style=\""font-size:65px;\"">B</div>"", ""key_press"": null, ""test_part"": ""test"", ""next_elem"": ""B"", ""trial_type"": ""html-keyboard-response"", ""trial_index"": 117, ""time_elapsed"": 149956, ""internal_node_id"": ""0.0-8.0-0.0-0.19"", ""uniqueId"": ""A1P2RQ166VS5BT:358010RM5IQT30SB4L9JA4ISWRNVX9"", ""condition"": 0, ""counterbalance"": 0}"
A1P2RQ166VS5BT:358010RM5IQT30SB4L9JA4ISWRNVX9,118,1580528964452,"{""rt"": null, ""stimulus"": ""<div style=\""font-size:65px;\"">B</div>"", ""key_press"": null, ""test_part"": ""test"", ""next_elem"": ""A"", ""trial_type"": ""html-keyboard-response"", ""trial_index"": 118, ""time_elapsed"": 151060, ""internal_node_id"": ""0.0-8.0-0.0-0.20"", ""uniqueId"": ""A1P2RQ166VS5BT:358010RM5IQT30SB4L9JA4ISWRNVX9"", ""condition"": 0, ""counterbalance"": 0}"
A1P2RQ166VS5BT:358010RM5IQT30SB4L9JA4ISWRNVX9,119,1580528965558,"{""rt"": null, ""stimulus"": ""<div style=\""font-size:65px;\"">A</div>"", ""key_press"": null, ""test_part"": ""test"", ""next_elem"": ""B"", ""trial_type"": ""html-keyboard-response"", ""trial_index"": 119, ""time_elapsed"": 152166, ""internal_node_id"": ""0.0-8.0-0.0-0.21"", ""uniqueId"": ""A1P2RQ166VS5BT:358010RM5IQT30SB4L9JA4ISWRNVX9"", ""condition"": 0, ""counterbalance"": 0}"
A1P2RQ166VS5BT:358010RM5IQT30SB4L9JA4ISWRNVX9,120,1580528966665,"{""rt"": null, ""stimulus"": ""<div style=\""font-size:65px;\"">B</div>"", ""key_press"": null, ""test_part"": ""test"", ""next_elem"": ""B"", ""trial_type"": ""html-keyboard-response"", ""trial_index"": 120, ""time_elapsed"": 153273, ""internal_node_id"": ""0.0-8.0-0.0-0.22"", ""uniqueId"": ""A1P2RQ166VS5BT:358010RM5IQT30SB4L9JA4ISWRNVX9"", ""condition"": 0, ""counterbalance"": 0}"
A1P2RQ166VS5BT:358010RM5IQT30SB4L9JA4ISWRNVX9,121,1580528967772,"{""rt"": null, ""stimulus"": ""<div style=\""font-size:65px;\"">B</div>"", ""key_press"": null, ""test_part"": ""test"", ""next_elem"": ""A"", ""trial_type"": ""html-keyboard-response"", ""trial_index"": 121, ""time_elapsed"": 154380, ""internal_node_id"": ""0.0-8.0-0.0-0.23"", ""uniqueId"": ""A1P2RQ166VS5BT:358010RM5IQT30SB4L9JA4ISWRNVX9"", ""condition"": 0, ""counterbalance"": 0}"
A1P2RQ166VS5BT:358010RM5IQT30SB4L9JA4ISWRNVX9,122,1580528968881,"{""rt"": null, ""stimulus"": ""<div style=\""font-size:65px;\"">A</div>"", ""key_press"": null, ""test_part"": ""test"", ""next_elem"": ""B"", ""trial_type"": ""html-keyboard-response"", ""trial_index"": 122, ""time_elapsed"": 155489, ""internal_node_id"": ""0.0-8.0-0.0-0.24"", ""uniqueId"": ""A1P2RQ166VS5BT:358010RM5IQT30SB4L9JA4ISWRNVX9"", ""condition"": 0, ""counterbalance"": 0}"
A1P2RQ166VS5BT:358010RM5IQT30SB4L9JA4ISWRNVX9,123,1580528969985,"{""rt"": null, ""stimulus"": ""<div style=\""font-size:65px;\"">B</div>"", ""key_press"": null, ""test_part"": ""test"", ""next_elem"": ""B"", ""trial_type"": ""html-keyboard-response"", ""trial_index"": 123, ""time_elapsed"": 156593, ""internal_node_id"": ""0.0-8.0-0.0-0.25"", ""uniqueId"": ""A1P2RQ166VS5BT:358010RM5IQT30SB4L9JA4ISWRNVX9"", ""condition"": 0, ""counterbalance"": 0}"
A1P2RQ166VS5BT:358010RM5IQT30SB4L9JA4ISWRNVX9,124,1580528971092,"{""rt"": null, ""stimulus"": ""<div style=\""font-size:65px;\"">B</div>"", ""key_press"": null, ""test_part"": ""test"", ""next_elem"": ""A"", ""trial_type"": ""html-keyboard-response"", ""trial_index"": 124, ""time_elapsed"": 157700, ""internal_node_id"": ""0.0-8.0-0.0-0.26"", ""uniqueId"": ""A1P2RQ166VS5BT:358010RM5IQT30SB4L9JA4ISWRNVX9"", ""condition"": 0, ""counterbalance"": 0}"
A1P2RQ166VS5BT:358010RM5IQT30SB4L9JA4ISWRNVX9,125,1580528972194,"{""rt"": null, ""stimulus"": ""<div style=\""font-size:65px;\"">A</div>"", ""key_press"": null, ""test_part"": ""test"", ""next_elem"": ""B"", ""trial_type"": ""html-keyboard-response"", ""trial_index"": 125, ""time_elapsed"": 158802, ""internal_node_id"": ""0.0-8.0-0.0-0.27"", ""uniqueId"": ""A1P2RQ166VS5BT:358010RM5IQT30SB4L9JA4ISWRNVX9"", ""condition"": 0, ""counterbalance"": 0}"
A1P2RQ166VS5BT:358010RM5IQT30SB4L9JA4ISWRNVX9,126,1580528973296,"{""rt"": null, ""stimulus"": ""<div style=\""font-size:65px;\"">B</div>"", ""key_press"": null, ""test_part"": ""test"", ""next_elem"": ""B"", ""trial_type"": ""html-keyboard-response"", ""trial_index"": 126, ""time_elapsed"": 159904, ""internal_node_id"": ""0.0-8.0-0.0-0.28"", ""uniqueId"": ""A1P2RQ166VS5BT:358010RM5IQT30SB4L9JA4ISWRNVX9"", ""condition"": 0, ""counterbalance"": 0}"
A1P2RQ166VS5BT:358010RM5IQT30SB4L9JA4ISWRNVX9,127,1580528976761,"{""rt"": 3161.005000118166, ""responses"": ""{\""Q0\"":\""B\""}"", ""question_order"": ""[0]"", ""test_part"": ""prediction"", ""trial_type"": ""survey-multi-choice"", ""trial_index"": 127, ""time_elapsed"": 163368, ""internal_node_id"": ""0.0-8.0-1.0"", ""uniqueId"": ""A1P2RQ166VS5BT:358010RM5IQT30SB4L9JA4ISWRNVX9"", ""condition"": 0, ""counterbalance"": 0}"
A1P2RQ166VS5BT:358010RM5IQT30SB4L9JA4ISWRNVX9,128,1580528978105,"{""rt"": 1340.7650000881404, ""stimulus"": ""Correct!"", ""button_pressed"": ""0"", ""test_part"": ""feedback"", ""trial_type"": ""html-button-response"", ""trial_index"": 128, ""time_elapsed"": 164712, ""internal_node_id"": ""0.0-8.0-2.0"", ""uniqueId"": ""A1P2RQ166VS5BT:358010RM5IQT30SB4L9JA4ISWRNVX9"", ""condition"": 0, ""counterbalance"": 0}"
A1P2RQ166VS5BT:358010RM5IQT30SB4L9JA4ISWRNVX9,129,1580528978907,"{""rt"": null, ""stimulus"": ""<div style=\""font-size:65px;\"">C</div>"", ""key_press"": null, ""test_part"": ""test"", ""next_elem"": ""C"", ""trial_type"": ""html-keyboard-response"", ""trial_index"": 129, ""time_elapsed"": 165515, ""internal_node_id"": ""0.0-9.0-0.0-0.0"", ""uniqueId"": ""A1P2RQ166VS5BT:358010RM5IQT30SB4L9JA4ISWRNVX9"", ""condition"": 0, ""counterbalance"": 0}"
A1P2RQ166VS5BT:358010RM5IQT30SB4L9JA4ISWRNVX9,130,1580528980009,"{""rt"": null, ""stimulus"": ""<div style=\""font-size:65px;\"">C</div>"", ""key_press"": null, ""test_part"": ""test"", ""next_elem"": ""C"", ""trial_type"": ""html-keyboard-response"", ""trial_index"": 130, ""time_elapsed"": 166617, ""internal_node_id"": ""0.0-9.0-0.0-0.1"", ""uniqueId"": ""A1P2RQ166VS5BT:358010RM5IQT30SB4L9JA4ISWRNVX9"", ""condition"": 0, ""counterbalance"": 0}"
A1P2RQ166VS5BT:358010RM5IQT30SB4L9JA4ISWRNVX9,131,1580528981117,"{""rt"": null, ""stimulus"": ""<div style=\""font-size:65px;\"">C</div>"", ""key_press"": null, ""test_part"": ""test"", ""next_elem"": ""C"", ""trial_type"": ""html-keyboard-response"", ""trial_index"": 131, ""time_elapsed"": 167725, ""internal_node_id"": ""0.0-9.0-0.0-0.2"", ""uniqueId"": ""A1P2RQ166VS5BT:358010RM5IQT30SB4L9JA4ISWRNVX9"", ""condition"": 0, ""counterbalance"": 0}"
A1P2RQ166VS5BT:358010RM5IQT30SB4L9JA4ISWRNVX9,132,1580528982223,"{""rt"": null, ""stimulus"": ""<div style=\""font-size:65px;\"">C</div>"", ""key_press"": null, ""test_part"": ""test"", ""next_elem"": ""C"", ""trial_type"": ""html-keyboard-response"", ""trial_index"": 132, ""time_elapsed"": 168831, ""internal_node_id"": ""0.0-9.0-0.0-0.3"", ""uniqueId"": ""A1P2RQ166VS5BT:358010RM5IQT30SB4L9JA4ISWRNVX9"", ""condition"": 0, ""counterbalance"": 0}"
A1P2RQ166VS5BT:358010RM5IQT30SB4L9JA4ISWRNVX9,133,1580528983326,"{""rt"": null, ""stimulus"": ""<div style=\""font-size:65px;\"">C</div>"", ""key_press"": null, ""test_part"": ""test"", ""next_elem"": ""C"", ""trial_type"": ""html-keyboard-response"", ""trial_index"": 133, ""time_elapsed"": 169933, ""internal_node_id"": ""0.0-9.0-0.0-0.4"", ""uniqueId"": ""A1P2RQ166VS5BT:358010RM5IQT30SB4L9JA4ISWRNVX9"", ""condition"": 0, ""counterbalance"": 0}"
A1P2RQ166VS5BT:358010RM5IQT30SB4L9JA4ISWRNVX9,134,1580528984427,"{""rt"": null, ""stimulus"": ""<div style=\""font-size:65px;\"">C</div>"", ""key_press"": null, ""test_part"": ""test"", ""next_elem"": ""C"", ""trial_type"": ""html-keyboard-response"", ""trial_index"": 134, ""time_elapsed"": 171035, ""internal_node_id"": ""0.0-9.0-0.0-0.5"", ""uniqueId"": ""A1P2RQ166VS5BT:358010RM5IQT30SB4L9JA4ISWRNVX9"", ""condition"": 0, ""counterbalance"": 0}"
A1P2RQ166VS5BT:358010RM5IQT30SB4L9JA4ISWRNVX9,135,1580528985531,"{""rt"": null, ""stimulus"": ""<div style=\""font-size:65px;\"">C</div>"", ""key_press"": null, ""test_part"": ""test"", ""next_elem"": ""C"", ""trial_type"": ""html-keyboard-response"", ""trial_index"": 135, ""time_elapsed"": 172139, ""internal_node_id"": ""0.0-9.0-0.0-0.6"", ""uniqueId"": ""A1P2RQ166VS5BT:358010RM5IQT30SB4L9JA4ISWRNVX9"", ""condition"": 0, ""counterbalance"": 0}"
A1P2RQ166VS5BT:358010RM5IQT30SB4L9JA4ISWRNVX9,136,1580528986635,"{""rt"": null, ""stimulus"": ""<div style=\""font-size:65px;\"">C</div>"", ""key_press"": null, ""test_part"": ""test"", ""next_elem"": ""C"", ""trial_type"": ""html-keyboard-response"", ""trial_index"": 136, ""time_elapsed"": 173243, ""internal_node_id"": ""0.0-9.0-0.0-0.7"", ""uniqueId"": ""A1P2RQ166VS5BT:358010RM5IQT30SB4L9JA4ISWRNVX9"", ""condition"": 0, ""counterbalance"": 0}"
A1P2RQ166VS5BT:358010RM5IQT30SB4L9JA4ISWRNVX9,137,1580528987737,"{""rt"": null, ""stimulus"": ""<div style=\""font-size:65px;\"">C</div>"", ""key_press"": null, ""test_part"": ""test"", ""next_elem"": ""C"", ""trial_type"": ""html-keyboard-response"", ""trial_index"": 137, ""time_elapsed"": 174345, ""internal_node_id"": ""0.0-9.0-0.0-0.8"", ""uniqueId"": ""A1P2RQ166VS5BT:358010RM5IQT30SB4L9JA4ISWRNVX9"", ""condition"": 0, ""counterbalance"": 0}"
A1P2RQ166VS5BT:358010RM5IQT30SB4L9JA4ISWRNVX9,138,1580528988841,"{""rt"": null, ""stimulus"": ""<div style=\""font-size:65px;\"">C</div>"", ""key_press"": null, ""test_part"": ""test"", ""next_elem"": ""C"", ""trial_type"": ""html-keyboard-response"", ""trial_index"": 138, ""time_elapsed"": 175448, ""internal_node_id"": ""0.0-9.0-0.0-0.9"", ""uniqueId"": ""A1P2RQ166VS5BT:358010RM5IQT30SB4L9JA4ISWRNVX9"", ""condition"": 0, ""counterbalance"": 0}"
A1P2RQ166VS5BT:358010RM5IQT30SB4L9JA4ISWRNVX9,139,1580528989946,"{""rt"": null, ""stimulus"": ""<div style=\""font-size:65px;\"">C</div>"", ""key_press"": null, ""test_part"": ""test"", ""next_elem"": ""C"", ""trial_type"": ""html-keyboard-response"", ""trial_index"": 139, ""time_elapsed"": 176553, ""internal_node_id"": ""0.0-9.0-0.0-0.10"", ""uniqueId"": ""A1P2RQ166VS5BT:358010RM5IQT30SB4L9JA4ISWRNVX9"", ""condition"": 0, ""counterbalance"": 0}"
A1P2RQ166VS5BT:358010RM5IQT30SB4L9JA4ISWRNVX9,140,1580528991051,"{""rt"": null, ""stimulus"": ""<div style=\""font-size:65px;\"">C</div>"", ""key_press"": null, ""test_part"": ""test"", ""next_elem"": ""C"", ""trial_type"": ""html-keyboard-response"", ""trial_index"": 140, ""time_elapsed"": 177659, ""internal_node_id"": ""0.0-9.0-0.0-0.11"", ""uniqueId"": ""A1P2RQ166VS5BT:358010RM5IQT30SB4L9JA4ISWRNVX9"", ""condition"": 0, ""counterbalance"": 0}"
A1P2RQ166VS5BT:358010RM5IQT30SB4L9JA4ISWRNVX9,141,1580528992157,"{""rt"": null, ""stimulus"": ""<div style=\""font-size:65px;\"">C</div>"", ""key_press"": null, ""test_part"": ""test"", ""next_elem"": ""C"", ""trial_type"": ""html-keyboard-response"", ""trial_index"": 141, ""time_elapsed"": 178765, ""internal_node_id"": ""0.0-9.0-0.0-0.12"", ""uniqueId"": ""A1P2RQ166VS5BT:358010RM5IQT30SB4L9JA4ISWRNVX9"", ""condition"": 0, ""counterbalance"": 0}"
A1P2RQ166VS5BT:358010RM5IQT30SB4L9JA4ISWRNVX9,142,1580528993264,"{""rt"": null, ""stimulus"": ""<div style=\""font-size:65px;\"">C</div>"", ""key_press"": null, ""test_part"": ""test"", ""next_elem"": ""C"", ""trial_type"": ""html-keyboard-response"", ""trial_index"": 142, ""time_elapsed"": 179872, ""internal_node_id"": ""0.0-9.0-0.0-0.13"", ""uniqueId"": ""A1P2RQ166VS5BT:358010RM5IQT30SB4L9JA4ISWRNVX9"", ""condition"": 0, ""counterbalance"": 0}"
A1P2RQ166VS5BT:358010RM5IQT30SB4L9JA4ISWRNVX9,143,1580528994372,"{""rt"": null, ""stimulus"": ""<div style=\""font-size:65px;\"">C</div>"", ""key_press"": null, ""test_part"": ""test"", ""next_elem"": ""C"", ""trial_type"": ""html-keyboard-response"", ""trial_index"": 143, ""time_elapsed"": 180980, ""internal_node_id"": ""0.0-9.0-0.0-0.14"", ""uniqueId"": ""A1P2RQ166VS5BT:358010RM5IQT30SB4L9JA4ISWRNVX9"", ""condition"": 0, ""counterbalance"": 0}"
A1P2RQ166VS5BT:358010RM5IQT30SB4L9JA4ISWRNVX9,144,1580528995482,"{""rt"": null, ""stimulus"": ""<div style=\""font-size:65px;\"">C</div>"", ""key_press"": null, ""test_part"": ""test"", ""next_elem"": ""C"", ""trial_type"": ""html-keyboard-response"", ""trial_index"": 144, ""time_elapsed"": 182090, ""internal_node_id"": ""0.0-9.0-0.0-0.15"", ""uniqueId"": ""A1P2RQ166VS5BT:358010RM5IQT30SB4L9JA4ISWRNVX9"", ""condition"": 0, ""counterbalance"": 0}"
A1P2RQ166VS5BT:358010RM5IQT30SB4L9JA4ISWRNVX9,145,1580528996590,"{""rt"": null, ""stimulus"": ""<div style=\""font-size:65px;\"">C</div>"", ""key_press"": null, ""test_part"": ""test"", ""next_elem"": ""C"", ""trial_type"": ""html-keyboard-response"", ""trial_index"": 145, ""time_elapsed"": 183198, ""internal_node_id"": ""0.0-9.0-0.0-0.16"", ""uniqueId"": ""A1P2RQ166VS5BT:358010RM5IQT30SB4L9JA4ISWRNVX9"", ""condition"": 0, ""counterbalance"": 0}"
A1P2RQ166VS5BT:358010RM5IQT30SB4L9JA4ISWRNVX9,146,1580528997698,"{""rt"": null, ""stimulus"": ""<div style=\""font-size:65px;\"">C</div>"", ""key_press"": null, ""test_part"": ""test"", ""next_elem"": ""C"", ""trial_type"": ""html-keyboard-response"", ""trial_index"": 146, ""time_elapsed"": 184306, ""internal_node_id"": ""0.0-9.0-0.0-0.17"", ""uniqueId"": ""A1P2RQ166VS5BT:358010RM5IQT30SB4L9JA4ISWRNVX9"", ""condition"": 0, ""counterbalance"": 0}"
A1P2RQ166VS5BT:358010RM5IQT30SB4L9JA4ISWRNVX9,147,1580528998801,"{""rt"": null, ""stimulus"": ""<div style=\""font-size:65px;\"">C</div>"", ""key_press"": null, ""test_part"": ""test"", ""next_elem"": ""C"", ""trial_type"": ""html-keyboard-response"", ""trial_index"": 147, ""time_elapsed"": 185408, ""internal_node_id"": ""0.0-9.0-0.0-0.18"", ""uniqueId"": ""A1P2RQ166VS5BT:358010RM5IQT30SB4L9JA4ISWRNVX9"", ""condition"": 0, ""counterbalance"": 0}"
A1P2RQ166VS5BT:358010RM5IQT30SB4L9JA4ISWRNVX9,148,1580528999902,"{""rt"": null, ""stimulus"": ""<div style=\""font-size:65px;\"">C</div>"", ""key_press"": null, ""test_part"": ""test"", ""next_elem"": ""C"", ""trial_type"": ""html-keyboard-response"", ""trial_index"": 148, ""time_elapsed"": 186510, ""internal_node_id"": ""0.0-9.0-0.0-0.19"", ""uniqueId"": ""A1P2RQ166VS5BT:358010RM5IQT30SB4L9JA4ISWRNVX9"", ""condition"": 0, ""counterbalance"": 0}"
A1P2RQ166VS5BT:358010RM5IQT30SB4L9JA4ISWRNVX9,149,1580529001005,"{""rt"": null, ""stimulus"": ""<div style=\""font-size:65px;\"">C</div>"", ""key_press"": null, ""test_part"": ""test"", ""next_elem"": ""C"", ""trial_type"": ""html-keyboard-response"", ""trial_index"": 149, ""time_elapsed"": 187613, ""internal_node_id"": ""0.0-9.0-0.0-0.20"", ""uniqueId"": ""A1P2RQ166VS5BT:358010RM5IQT30SB4L9JA4ISWRNVX9"", ""condition"": 0, ""counterbalance"": 0}"
A1P2RQ166VS5BT:358010RM5IQT30SB4L9JA4ISWRNVX9,150,1580529002114,"{""rt"": null, ""stimulus"": ""<div style=\""font-size:65px;\"">C</div>"", ""key_press"": null, ""test_part"": ""test"", ""next_elem"": ""C"", ""trial_type"": ""html-keyboard-response"", ""trial_index"": 150, ""time_elapsed"": 188722, ""internal_node_id"": ""0.0-9.0-0.0-0.21"", ""uniqueId"": ""A1P2RQ166VS5BT:358010RM5IQT30SB4L9JA4ISWRNVX9"", ""condition"": 0, ""counterbalance"": 0}"
A1P2RQ166VS5BT:358010RM5IQT30SB4L9JA4ISWRNVX9,151,1580529003220,"{""rt"": null, ""stimulus"": ""<div style=\""font-size:65px;\"">C</div>"", ""key_press"": null, ""test_part"": ""test"", ""next_elem"": ""C"", ""trial_type"": ""html-keyboard-response"", ""trial_index"": 151, ""time_elapsed"": 189828, ""internal_node_id"": ""0.0-9.0-0.0-0.22"", ""uniqueId"": ""A1P2RQ166VS5BT:358010RM5IQT30SB4L9JA4ISWRNVX9"", ""condition"": 0, ""counterbalance"": 0}"
A1P2RQ166VS5BT:358010RM5IQT30SB4L9JA4ISWRNVX9,152,1580529004323,"{""rt"": null, ""stimulus"": ""<div style=\""font-size:65px;\"">C</div>"", ""key_press"": null, ""test_part"": ""test"", ""next_elem"": ""C"", ""trial_type"": ""html-keyboard-response"", ""trial_index"": 152, ""time_elapsed"": 190931, ""internal_node_id"": ""0.0-9.0-0.0-0.23"", ""uniqueId"": ""A1P2RQ166VS5BT:358010RM5IQT30SB4L9JA4ISWRNVX9"", ""condition"": 0, ""counterbalance"": 0}"
A1P2RQ166VS5BT:358010RM5IQT30SB4L9JA4ISWRNVX9,153,1580529005428,"{""rt"": null, ""stimulus"": ""<div style=\""font-size:65px;\"">C</div>"", ""key_press"": null, ""test_part"": ""test"", ""next_elem"": ""C"", ""trial_type"": ""html-keyboard-response"", ""trial_index"": 153, ""time_elapsed"": 192036, ""internal_node_id"": ""0.0-9.0-0.0-0.24"", ""uniqueId"": ""A1P2RQ166VS5BT:358010RM5IQT30SB4L9JA4ISWRNVX9"", ""condition"": 0, ""counterbalance"": 0}"
A1P2RQ166VS5BT:358010RM5IQT30SB4L9JA4ISWRNVX9,154,1580529006532,"{""rt"": null, ""stimulus"": ""<div style=\""font-size:65px;\"">C</div>"", ""key_press"": null, ""test_part"": ""test"", ""next_elem"": ""C"", ""trial_type"": ""html-keyboard-response"", ""trial_index"": 154, ""time_elapsed"": 193140, ""internal_node_id"": ""0.0-9.0-0.0-0.25"", ""uniqueId"": ""A1P2RQ166VS5BT:358010RM5IQT30SB4L9JA4ISWRNVX9"", ""condition"": 0, ""counterbalance"": 0}"
A1P2RQ166VS5BT:358010RM5IQT30SB4L9JA4ISWRNVX9,155,1580529007637,"{""rt"": null, ""stimulus"": ""<div style=\""font-size:65px;\"">C</div>"", ""key_press"": null, ""test_part"": ""test"", ""next_elem"": ""C"", ""trial_type"": ""html-keyboard-response"", ""trial_index"": 155, ""time_elapsed"": 194245, ""internal_node_id"": ""0.0-9.0-0.0-0.26"", ""uniqueId"": ""A1P2RQ166VS5BT:358010RM5IQT30SB4L9JA4ISWRNVX9"", ""condition"": 0, ""counterbalance"": 0}"
A1P2RQ166VS5BT:358010RM5IQT30SB4L9JA4ISWRNVX9,156,1580529008740,"{""rt"": null, ""stimulus"": ""<div style=\""font-size:65px;\"">C</div>"", ""key_press"": null, ""test_part"": ""test"", ""next_elem"": ""C"", ""trial_type"": ""html-keyboard-response"", ""trial_index"": 156, ""time_elapsed"": 195348, ""internal_node_id"": ""0.0-9.0-0.0-0.27"", ""uniqueId"": ""A1P2RQ166VS5BT:358010RM5IQT30SB4L9JA4ISWRNVX9"", ""condition"": 0, ""counterbalance"": 0}"
A1P2RQ166VS5BT:358010RM5IQT30SB4L9JA4ISWRNVX9,157,1580529009844,"{""rt"": null, ""stimulus"": ""<div style=\""font-size:65px;\"">C</div>"", ""key_press"": null, ""test_part"": ""test"", ""next_elem"": ""C"", ""trial_type"": ""html-keyboard-response"", ""trial_index"": 157, ""time_elapsed"": 196452, ""internal_node_id"": ""0.0-9.0-0.0-0.28"", ""uniqueId"": ""A1P2RQ166VS5BT:358010RM5IQT30SB4L9JA4ISWRNVX9"", ""condition"": 0, ""counterbalance"": 0}"
A1P2RQ166VS5BT:358010RM5IQT30SB4L9JA4ISWRNVX9,158,1580529013106,"{""rt"": 2955.799999879673, ""responses"": ""{\""Q0\"":\""C\""}"", ""question_order"": ""[0]"", ""test_part"": ""prediction"", ""trial_type"": ""survey-multi-choice"", ""trial_index"": 158, ""time_elapsed"": 199714, ""internal_node_id"": ""0.0-9.0-1.0"", ""uniqueId"": ""A1P2RQ166VS5BT:358010RM5IQT30SB4L9JA4ISWRNVX9"", ""condition"": 0, ""counterbalance"": 0}"
A1P2RQ166VS5BT:358010RM5IQT30SB4L9JA4ISWRNVX9,159,1580529015010,"{""rt"": 1899.890000000596, ""stimulus"": ""Correct!"", ""button_pressed"": ""0"", ""test_part"": ""feedback"", ""trial_type"": ""html-button-response"", ""trial_index"": 159, ""time_elapsed"": 201618, ""internal_node_id"": ""0.0-9.0-2.0"", ""uniqueId"": ""A1P2RQ166VS5BT:358010RM5IQT30SB4L9JA4ISWRNVX9"", ""condition"": 0, ""counterbalance"": 0}"
A1P2RQ166VS5BT:358010RM5IQT30SB4L9JA4ISWRNVX9,160,1580529015815,"{""rt"": null, ""stimulus"": ""<div style=\""font-size:65px;\"">A</div>"", ""key_press"": null, ""test_part"": ""test"", ""next_elem"": ""A"", ""trial_type"": ""html-keyboard-response"", ""trial_index"": 160, ""time_elapsed"": 202423, ""internal_node_id"": ""0.0-10.0-0.0-0.0"", ""uniqueId"": ""A1P2RQ166VS5BT:358010RM5IQT30SB4L9JA4ISWRNVX9"", ""condition"": 0, ""counterbalance"": 0}"
A1P2RQ166VS5BT:358010RM5IQT30SB4L9JA4ISWRNVX9,161,1580529016926,"{""rt"": null, ""stimulus"": ""<div style=\""font-size:65px;\"">A</div>"", ""key_press"": null, ""test_part"": ""test"", ""next_elem"": ""A"", ""trial_type"": ""html-keyboard-response"", ""trial_index"": 161, ""time_elapsed"": 203534, ""internal_node_id"": ""0.0-10.0-0.0-0.1"", ""uniqueId"": ""A1P2RQ166VS5BT:358010RM5IQT30SB4L9JA4ISWRNVX9"", ""condition"": 0, ""counterbalance"": 0}"
A1P2RQ166VS5BT:358010RM5IQT30SB4L9JA4ISWRNVX9,162,1580529018027,"{""rt"": null, ""stimulus"": ""<div style=\""font-size:65px;\"">A</div>"", ""key_press"": null, ""test_part"": ""test"", ""next_elem"": ""A"", ""trial_type"": ""html-keyboard-response"", ""trial_index"": 162, ""time_elapsed"": 204635, ""internal_node_id"": ""0.0-10.0-0.0-0.2"", ""uniqueId"": ""A1P2RQ166VS5BT:358010RM5IQT30SB4L9JA4ISWRNVX9"", ""condition"": 0, ""counterbalance"": 0}"
A1P2RQ166VS5BT:358010RM5IQT30SB4L9JA4ISWRNVX9,163,1580529019131,"{""rt"": null, ""stimulus"": ""<div style=\""font-size:65px;\"">A</div>"", ""key_press"": null, ""test_part"": ""test"", ""next_elem"": ""A"", ""trial_type"": ""html-keyboard-response"", ""trial_index"": 163, ""time_elapsed"": 205739, ""internal_node_id"": ""0.0-10.0-0.0-0.3"", ""uniqueId"": ""A1P2RQ166VS5BT:358010RM5IQT30SB4L9JA4ISWRNVX9"", ""condition"": 0, ""counterbalance"": 0}"
A1P2RQ166VS5BT:358010RM5IQT30SB4L9JA4ISWRNVX9,164,1580529020235,"{""rt"": null, ""stimulus"": ""<div style=\""font-size:65px;\"">A</div>"", ""key_press"": null, ""test_part"": ""test"", ""next_elem"": ""A"", ""trial_type"": ""html-keyboard-response"", ""trial_index"": 164, ""time_elapsed"": 206843, ""internal_node_id"": ""0.0-10.0-0.0-0.4"", ""uniqueId"": ""A1P2RQ166VS5BT:358010RM5IQT30SB4L9JA4ISWRNVX9"", ""condition"": 0, ""counterbalance"": 0}"
A1P2RQ166VS5BT:358010RM5IQT30SB4L9JA4ISWRNVX9,165,1580529021339,"{""rt"": null, ""stimulus"": ""<div style=\""font-size:65px;\"">A</div>"", ""key_press"": null, ""test_part"": ""test"", ""next_elem"": ""A"", ""trial_type"": ""html-keyboard-response"", ""trial_index"": 165, ""time_elapsed"": 207947, ""internal_node_id"": ""0.0-10.0-0.0-0.5"", ""uniqueId"": ""A1P2RQ166VS5BT:358010RM5IQT30SB4L9JA4ISWRNVX9"", ""condition"": 0, ""counterbalance"": 0}"
A1P2RQ166VS5BT:358010RM5IQT30SB4L9JA4ISWRNVX9,166,1580529022441,"{""rt"": null, ""stimulus"": ""<div style=\""font-size:65px;\"">A</div>"", ""key_press"": null, ""test_part"": ""test"", ""next_elem"": ""A"", ""trial_type"": ""html-keyboard-response"", ""trial_index"": 166, ""time_elapsed"": 209049, ""internal_node_id"": ""0.0-10.0-0.0-0.6"", ""uniqueId"": ""A1P2RQ166VS5BT:358010RM5IQT30SB4L9JA4ISWRNVX9"", ""condition"": 0, ""counterbalance"": 0}"
A1P2RQ166VS5BT:358010RM5IQT30SB4L9JA4ISWRNVX9,167,1580529023552,"{""rt"": null, ""stimulus"": ""<div style=\""font-size:65px;\"">A</div>"", ""key_press"": null, ""test_part"": ""test"", ""next_elem"": ""A"", ""trial_type"": ""html-keyboard-response"", ""trial_index"": 167, ""time_elapsed"": 210160, ""internal_node_id"": ""0.0-10.0-0.0-0.7"", ""uniqueId"": ""A1P2RQ166VS5BT:358010RM5IQT30SB4L9JA4ISWRNVX9"", ""condition"": 0, ""counterbalance"": 0}"
