debugKJES3:debug3qbPN,1,1.59518E+12,"{""rt"": 22062.599999999293, ""responses"": ""{\""Q0\"":\""Green,circle\""}"", ""test_part"": ""botcheck"", ""trial_type"": ""survey-text"", ""trial_index"": 1, ""time_elapsed"": 26346, ""internal_node_id"": ""0.0-1.0"", ""uniqueId"": ""debugKJES3:debug3qbPN"", ""condition"": 0, ""counterbalance"": 0}"
debugKJES3:debug3qbPN,2,1.59518E+12,"{""rt"": 6178.9000000007945, ""stimulus"": ""<p> <i> Thank you for participating in our experiment!  </i> </p><p> This session will last for 5min. <b> Please complete it in full screen mode. </b> </p><p> Do this experiment in one go, otherwise it will time out and we will </p><p> not be able to pay you. </p> "", ""button_pressed"": ""0"", ""test_part"": ""instructions"", ""trial_type"": ""html-button-response"", ""trial_index"": 2, ""time_elapsed"": 32540, ""internal_node_id"": ""0.0-2.0"", ""uniqueId"": ""debugKJES3:debug3qbPN"", ""condition"": 0, ""counterbalance"": 0}"
debugKJES3:debug3qbPN,3,1.59518E+12,"{""rt"": 8738.30000000089, ""stimulus"": ""<p> In each trial, you will see sequences of icons appearing one-by-one. </p><p> <b> Your task is very easy: Watch the icons closely, and for as long as you like.  </b> </p><p> Whenever you lose interest in the sequence, press space bar to see the next one. </p>"", ""button_pressed"": ""0"", ""test_part"": ""instructions"", ""trial_type"": ""html-button-response"", ""trial_index"": 3, ""time_elapsed"": 42285, ""internal_node_id"": ""0.0-3.0"", ""uniqueId"": ""debugKJES3:debug3qbPN"", ""condition"": 0, ""counterbalance"": 0}"
debugKJES3:debug3qbPN,4,1.59518E+12,"{""rt"": 13134.499999998297, ""stimulus"": ""<p> To re-iterate: Your task is simply to watch the icons, </p><p> and press the space bar whenever you lose interest in the sequence. </p><p> The experiment will end automatically after 5 minutes. </p><p> <b> Please, maintain your attention during the experiment. </b> </p><p> You may encounter little, unexpected tests during the experiment, </p><p>  to make sure you are paying attention. </p>"", ""button_pressed"": ""0"", ""test_part"": ""instructions"", ""trial_type"": ""html-button-response"", ""trial_index"": 4, ""time_elapsed"": 56437, ""internal_node_id"": ""0.0-4.0"", ""uniqueId"": ""debugKJES3:debug3qbPN"", ""condition"": 0, ""counterbalance"": 0}"
debugKJES3:debug3qbPN,5,1.59518E+12,"{""rt"": null, ""stimulus"": ""<img src=\""/static/images/icons/Slide25.png\""></img>"", ""key_press"": null, ""test_part"": ""training"", ""next_elem"": ""Slide52"", ""trial_type"": ""html-keyboard-response"", ""trial_index"": 5, ""time_elapsed"": 58367, ""internal_node_id"": ""0.0-5.0-0.0-0.0"", ""uniqueId"": ""debugKJES3:debug3qbPN"", ""condition"": 0, ""counterbalance"": 0}"
debugKJES3:debug3qbPN,6,1.59518E+12,"{""rt"": null, ""stimulus"": ""<img src=\""/static/images/icons/Slide52.png\""></img>"", ""key_press"": null, ""test_part"": ""training"", ""next_elem"": ""Slide28"", ""trial_type"": ""html-keyboard-response"", ""trial_index"": 6, ""time_elapsed"": 59576, ""internal_node_id"": ""0.0-5.0-0.0-0.1"", ""uniqueId"": ""debugKJES3:debug3qbPN"", ""condition"": 0, ""counterbalance"": 0}"
debugKJES3:debug3qbPN,7,1.59518E+12,"{""rt"": null, ""stimulus"": ""<img src=\""/static/images/icons/Slide28.png\""></img>"", ""key_press"": null, ""test_part"": ""training"", ""next_elem"": ""Slide52"", ""trial_type"": ""html-keyboard-response"", ""trial_index"": 7, ""time_elapsed"": 60782, ""internal_node_id"": ""0.0-5.0-0.0-0.2"", ""uniqueId"": ""debugKJES3:debug3qbPN"", ""condition"": 0, ""counterbalance"": 0}"
debugKJES3:debug3qbPN,8,1.59518E+12,"{""rt"": null, ""stimulus"": ""<img src=\""/static/images/icons/Slide52.png\""></img>"", ""key_press"": null, ""test_part"": ""training"", ""next_elem"": ""Slide28"", ""trial_type"": ""html-keyboard-response"", ""trial_index"": 8, ""time_elapsed"": 61991, ""internal_node_id"": ""0.0-5.0-0.0-0.3"", ""uniqueId"": ""debugKJES3:debug3qbPN"", ""condition"": 0, ""counterbalance"": 0}"
debugKJES3:debug3qbPN,9,1.59518E+12,"{""rt"": null, ""stimulus"": ""<img src=\""/static/images/icons/Slide28.png\""></img>"", ""key_press"": null, ""test_part"": ""training"", ""next_elem"": ""Slide25"", ""trial_type"": ""html-keyboard-response"", ""trial_index"": 9, ""time_elapsed"": 63211, ""internal_node_id"": ""0.0-5.0-0.0-0.4"", ""uniqueId"": ""debugKJES3:debug3qbPN"", ""condition"": 0, ""counterbalance"": 0}"
debugKJES3:debug3qbPN,10,1.59518E+12,"{""rt"": null, ""stimulus"": ""<img src=\""/static/images/icons/Slide25.png\""></img>"", ""key_press"": null, ""test_part"": ""training"", ""next_elem"": ""Slide52"", ""trial_type"": ""html-keyboard-response"", ""trial_index"": 10, ""time_elapsed"": 64424, ""internal_node_id"": ""0.0-5.0-0.0-0.5"", ""uniqueId"": ""debugKJES3:debug3qbPN"", ""condition"": 0, ""counterbalance"": 0}"
debugKJES3:debug3qbPN,11,1.59518E+12,"{""rt"": null, ""stimulus"": ""<img src=\""/static/images/icons/Slide52.png\""></img>"", ""key_press"": null, ""test_part"": ""training"", ""next_elem"": ""Slide25"", ""trial_type"": ""html-keyboard-response"", ""trial_index"": 11, ""time_elapsed"": 65635, ""internal_node_id"": ""0.0-5.0-0.0-0.6"", ""uniqueId"": ""debugKJES3:debug3qbPN"", ""condition"": 0, ""counterbalance"": 0}"
debugKJES3:debug3qbPN,12,1.59518E+12,"{""rt"": null, ""stimulus"": ""<img src=\""/static/images/icons/Slide25.png\""></img>"", ""key_press"": null, ""test_part"": ""training"", ""next_elem"": ""Slide28"", ""trial_type"": ""html-keyboard-response"", ""trial_index"": 12, ""time_elapsed"": 66844, ""internal_node_id"": ""0.0-5.0-0.0-0.7"", ""uniqueId"": ""debugKJES3:debug3qbPN"", ""condition"": 0, ""counterbalance"": 0}"
debugKJES3:debug3qbPN,13,1.59518E+12,"{""rt"": null, ""stimulus"": ""<img src=\""/static/images/icons/Slide28.png\""></img>"", ""key_press"": null, ""test_part"": ""training"", ""next_elem"": ""Slide28"", ""trial_type"": ""html-keyboard-response"", ""trial_index"": 13, ""time_elapsed"": 68054, ""internal_node_id"": ""0.0-5.0-0.0-0.8"", ""uniqueId"": ""debugKJES3:debug3qbPN"", ""condition"": 0, ""counterbalance"": 0}"
debugKJES3:debug3qbPN,14,1.59518E+12,"{""rt"": null, ""stimulus"": ""<img src=\""/static/images/icons/Slide28.png\""></img>"", ""key_press"": null, ""test_part"": ""training"", ""next_elem"": ""Slide28"", ""trial_type"": ""html-keyboard-response"", ""trial_index"": 14, ""time_elapsed"": 69259, ""internal_node_id"": ""0.0-5.0-0.0-0.9"", ""uniqueId"": ""debugKJES3:debug3qbPN"", ""condition"": 0, ""counterbalance"": 0}"
debugKJES3:debug3qbPN,15,1.59518E+12,"{""rt"": null, ""stimulus"": ""<img src=\""/static/images/icons/Slide28.png\""></img>"", ""key_press"": null, ""test_part"": ""training"", ""next_elem"": ""Slide52"", ""trial_type"": ""html-keyboard-response"", ""trial_index"": 15, ""time_elapsed"": 70468, ""internal_node_id"": ""0.0-5.0-0.0-0.10"", ""uniqueId"": ""debugKJES3:debug3qbPN"", ""condition"": 0, ""counterbalance"": 0}"
debugKJES3:debug3qbPN,16,1.59518E+12,"{""rt"": null, ""stimulus"": ""<img src=\""/static/images/icons/Slide52.png\""></img>"", ""key_press"": null, ""test_part"": ""training"", ""next_elem"": ""Slide25"", ""trial_type"": ""html-keyboard-response"", ""trial_index"": 16, ""time_elapsed"": 71675, ""internal_node_id"": ""0.0-5.0-0.0-0.11"", ""uniqueId"": ""debugKJES3:debug3qbPN"", ""condition"": 0, ""counterbalance"": 0}"
debugKJES3:debug3qbPN,17,1.59518E+12,"{""rt"": null, ""stimulus"": ""<img src=\""/static/images/icons/Slide25.png\""></img>"", ""key_press"": null, ""test_part"": ""training"", ""next_elem"": ""Slide25"", ""trial_type"": ""html-keyboard-response"", ""trial_index"": 17, ""time_elapsed"": 72884, ""internal_node_id"": ""0.0-5.0-0.0-0.12"", ""uniqueId"": ""debugKJES3:debug3qbPN"", ""condition"": 0, ""counterbalance"": 0}"
debugKJES3:debug3qbPN,18,1.59518E+12,"{""rt"": null, ""stimulus"": ""<img src=\""/static/images/icons/Slide25.png\""></img>"", ""key_press"": null, ""test_part"": ""training"", ""next_elem"": ""Slide28"", ""trial_type"": ""html-keyboard-response"", ""trial_index"": 18, ""time_elapsed"": 74091, ""internal_node_id"": ""0.0-5.0-0.0-0.13"", ""uniqueId"": ""debugKJES3:debug3qbPN"", ""condition"": 0, ""counterbalance"": 0}"
debugKJES3:debug3qbPN,19,1.59518E+12,"{""rt"": null, ""stimulus"": ""<img src=\""/static/images/icons/Slide28.png\""></img>"", ""key_press"": null, ""test_part"": ""training"", ""next_elem"": ""Slide52"", ""trial_type"": ""html-keyboard-response"", ""trial_index"": 19, ""time_elapsed"": 75295, ""internal_node_id"": ""0.0-5.0-0.0-0.14"", ""uniqueId"": ""debugKJES3:debug3qbPN"", ""condition"": 0, ""counterbalance"": 0}"
debugKJES3:debug3qbPN,20,1.59518E+12,"{""rt"": null, ""stimulus"": ""<img src=\""/static/images/icons/Slide52.png\""></img>"", ""key_press"": null, ""test_part"": ""training"", ""next_elem"": ""Slide52"", ""trial_type"": ""html-keyboard-response"", ""trial_index"": 20, ""time_elapsed"": 76499, ""internal_node_id"": ""0.0-5.0-0.0-0.15"", ""uniqueId"": ""debugKJES3:debug3qbPN"", ""condition"": 0, ""counterbalance"": 0}"
debugKJES3:debug3qbPN,21,1.59518E+12,"{""rt"": null, ""stimulus"": ""<img src=\""/static/images/icons/Slide52.png\""></img>"", ""key_press"": null, ""test_part"": ""training"", ""next_elem"": ""Slide52"", ""trial_type"": ""html-keyboard-response"", ""trial_index"": 21, ""time_elapsed"": 77704, ""internal_node_id"": ""0.0-5.0-0.0-0.16"", ""uniqueId"": ""debugKJES3:debug3qbPN"", ""condition"": 0, ""counterbalance"": 0}"
debugKJES3:debug3qbPN,22,1.59518E+12,"{""rt"": null, ""stimulus"": ""<img src=\""/static/images/icons/Slide52.png\""></img>"", ""key_press"": null, ""test_part"": ""training"", ""next_elem"": ""Slide25"", ""trial_type"": ""html-keyboard-response"", ""trial_index"": 22, ""time_elapsed"": 78910, ""internal_node_id"": ""0.0-5.0-0.0-0.17"", ""uniqueId"": ""debugKJES3:debug3qbPN"", ""condition"": 0, ""counterbalance"": 0}"
debugKJES3:debug3qbPN,23,1.59518E+12,"{""rt"": null, ""stimulus"": ""<img src=\""/static/images/icons/Slide25.png\""></img>"", ""key_press"": null, ""test_part"": ""training"", ""next_elem"": ""Slide52"", ""trial_type"": ""html-keyboard-response"", ""trial_index"": 23, ""time_elapsed"": 80113, ""internal_node_id"": ""0.0-5.0-0.0-0.18"", ""uniqueId"": ""debugKJES3:debug3qbPN"", ""condition"": 0, ""counterbalance"": 0}"
debugKJES3:debug3qbPN,24,1.59518E+12,"{""rt"": null, ""stimulus"": ""<img src=\""/static/images/icons/Slide52.png\""></img>"", ""key_press"": null, ""test_part"": ""training"", ""next_elem"": ""Slide25"", ""trial_type"": ""html-keyboard-response"", ""trial_index"": 24, ""time_elapsed"": 81317, ""internal_node_id"": ""0.0-5.0-0.0-0.19"", ""uniqueId"": ""debugKJES3:debug3qbPN"", ""condition"": 0, ""counterbalance"": 0}"
debugKJES3:debug3qbPN,25,1.59518E+12,"{""rt"": null, ""stimulus"": ""<img src=\""/static/images/icons/Slide25.png\""></img>"", ""key_press"": null, ""test_part"": ""training"", ""next_elem"": ""Slide52"", ""trial_type"": ""html-keyboard-response"", ""trial_index"": 25, ""time_elapsed"": 82524, ""internal_node_id"": ""0.0-5.0-0.0-0.20"", ""uniqueId"": ""debugKJES3:debug3qbPN"", ""condition"": 0, ""counterbalance"": 0}"
debugKJES3:debug3qbPN,26,1.59518E+12,"{""rt"": null, ""stimulus"": ""<img src=\""/static/images/icons/Slide52.png\""></img>"", ""key_press"": null, ""test_part"": ""training"", ""next_elem"": ""Slide52"", ""trial_type"": ""html-keyboard-response"", ""trial_index"": 26, ""time_elapsed"": 83728, ""internal_node_id"": ""0.0-5.0-0.0-0.21"", ""uniqueId"": ""debugKJES3:debug3qbPN"", ""condition"": 0, ""counterbalance"": 0}"
debugKJES3:debug3qbPN,27,1.59518E+12,"{""rt"": null, ""stimulus"": ""<img src=\""/static/images/icons/Slide52.png\""></img>"", ""key_press"": null, ""test_part"": ""training"", ""next_elem"": ""Slide28"", ""trial_type"": ""html-keyboard-response"", ""trial_index"": 27, ""time_elapsed"": 84933, ""internal_node_id"": ""0.0-5.0-0.0-0.22"", ""uniqueId"": ""debugKJES3:debug3qbPN"", ""condition"": 0, ""counterbalance"": 0}"
debugKJES3:debug3qbPN,28,1.59518E+12,"{""rt"": null, ""stimulus"": ""<img src=\""/static/images/icons/Slide28.png\""></img>"", ""key_press"": null, ""test_part"": ""training"", ""next_elem"": ""Slide25"", ""trial_type"": ""html-keyboard-response"", ""trial_index"": 28, ""time_elapsed"": 86165, ""internal_node_id"": ""0.0-5.0-0.0-0.23"", ""uniqueId"": ""debugKJES3:debug3qbPN"", ""condition"": 0, ""counterbalance"": 0}"
debugKJES3:debug3qbPN,29,1.59518E+12,"{""rt"": null, ""stimulus"": ""<img src=\""/static/images/icons/Slide25.png\""></img>"", ""key_press"": null, ""test_part"": ""training"", ""next_elem"": ""Slide25"", ""trial_type"": ""html-keyboard-response"", ""trial_index"": 29, ""time_elapsed"": 87408, ""internal_node_id"": ""0.0-5.0-0.0-0.24"", ""uniqueId"": ""debugKJES3:debug3qbPN"", ""condition"": 0, ""counterbalance"": 0}"
debugKJES3:debug3qbPN,30,1.59518E+12,"{""rt"": null, ""stimulus"": ""<img src=\""/static/images/icons/Slide25.png\""></img>"", ""key_press"": null, ""test_part"": ""training"", ""next_elem"": ""Slide25"", ""trial_type"": ""html-keyboard-response"", ""trial_index"": 30, ""time_elapsed"": 88618, ""internal_node_id"": ""0.0-5.0-0.0-0.25"", ""uniqueId"": ""debugKJES3:debug3qbPN"", ""condition"": 0, ""counterbalance"": 0}"
debugKJES3:debug3qbPN,31,1.59518E+12,"{""rt"": null, ""stimulus"": ""<img src=\""/static/images/icons/Slide25.png\""></img>"", ""key_press"": null, ""test_part"": ""training"", ""next_elem"": ""Slide28"", ""trial_type"": ""html-keyboard-response"", ""trial_index"": 31, ""time_elapsed"": 89827, ""internal_node_id"": ""0.0-5.0-0.0-0.26"", ""uniqueId"": ""debugKJES3:debug3qbPN"", ""condition"": 0, ""counterbalance"": 0}"
debugKJES3:debug3qbPN,32,1.59518E+12,"{""rt"": null, ""stimulus"": ""<img src=\""/static/images/icons/Slide28.png\""></img>"", ""key_press"": null, ""test_part"": ""training"", ""next_elem"": ""Slide25"", ""trial_type"": ""html-keyboard-response"", ""trial_index"": 32, ""time_elapsed"": 91035, ""internal_node_id"": ""0.0-5.0-0.0-0.27"", ""uniqueId"": ""debugKJES3:debug3qbPN"", ""condition"": 0, ""counterbalance"": 0}"
debugKJES3:debug3qbPN,33,1.59518E+12,"{""rt"": null, ""stimulus"": ""<img src=\""/static/images/icons/Slide25.png\""></img>"", ""key_press"": null, ""test_part"": ""training"", ""next_elem"": ""Slide28"", ""trial_type"": ""html-keyboard-response"", ""trial_index"": 33, ""time_elapsed"": 92241, ""internal_node_id"": ""0.0-5.0-0.0-0.28"", ""uniqueId"": ""debugKJES3:debug3qbPN"", ""condition"": 0, ""counterbalance"": 0}"
debugKJES3:debug3qbPN,34,1.59518E+12,"{""rt"": null, ""stimulus"": ""Next sequence coming up.."", ""key_press"": null, ""test_part"": ""between_sequences"", ""trial_type"": ""html-keyboard-response"", ""trial_index"": 34, ""time_elapsed"": 96063, ""internal_node_id"": ""0.0-5.0-1.0"", ""uniqueId"": ""debugKJES3:debug3qbPN"", ""condition"": 0, ""counterbalance"": 0}"
debugKJES3:debug3qbPN,35,1.59518E+12,"{""rt"": null, ""stimulus"": ""<img src=\""/static/images/icons/Slide60.png\""></img>"", ""key_press"": null, ""test_part"": ""training"", ""next_elem"": ""Slide42"", ""trial_type"": ""html-keyboard-response"", ""trial_index"": 35, ""time_elapsed"": 96970, ""internal_node_id"": ""0.0-6.0-0.0-0.0"", ""uniqueId"": ""debugKJES3:debug3qbPN"", ""condition"": 0, ""counterbalance"": 0}"
debugKJES3:debug3qbPN,36,1.59518E+12,"{""rt"": null, ""stimulus"": ""<img src=\""/static/images/icons/Slide42.png\""></img>"", ""key_press"": null, ""test_part"": ""training"", ""next_elem"": ""Slide27"", ""trial_type"": ""html-keyboard-response"", ""trial_index"": 36, ""time_elapsed"": 98180, ""internal_node_id"": ""0.0-6.0-0.0-0.1"", ""uniqueId"": ""debugKJES3:debug3qbPN"", ""condition"": 0, ""counterbalance"": 0}"
debugKJES3:debug3qbPN,37,1.59518E+12,"{""rt"": null, ""stimulus"": ""<img src=\""/static/images/icons/Slide27.png\""></img>"", ""key_press"": null, ""test_part"": ""training"", ""next_elem"": ""Slide42"", ""trial_type"": ""html-keyboard-response"", ""trial_index"": 37, ""time_elapsed"": 99387, ""internal_node_id"": ""0.0-6.0-0.0-0.2"", ""uniqueId"": ""debugKJES3:debug3qbPN"", ""condition"": 0, ""counterbalance"": 0}"
debugKJES3:debug3qbPN,38,1.59518E+12,"{""rt"": null, ""stimulus"": ""<img src=\""/static/images/icons/Slide42.png\""></img>"", ""key_press"": null, ""test_part"": ""training"", ""next_elem"": ""Slide27"", ""trial_type"": ""html-keyboard-response"", ""trial_index"": 38, ""time_elapsed"": 100594, ""internal_node_id"": ""0.0-6.0-0.0-0.3"", ""uniqueId"": ""debugKJES3:debug3qbPN"", ""condition"": 0, ""counterbalance"": 0}"
debugKJES3:debug3qbPN,39,1.59518E+12,"{""rt"": null, ""stimulus"": ""<img src=\""/static/images/icons/Slide27.png\""></img>"", ""key_press"": null, ""test_part"": ""training"", ""next_elem"": ""Slide60"", ""trial_type"": ""html-keyboard-response"", ""trial_index"": 39, ""time_elapsed"": 101800, ""internal_node_id"": ""0.0-6.0-0.0-0.4"", ""uniqueId"": ""debugKJES3:debug3qbPN"", ""condition"": 0, ""counterbalance"": 0}"
debugKJES3:debug3qbPN,40,1.59518E+12,"{""rt"": null, ""stimulus"": ""<img src=\""/static/images/icons/Slide60.png\""></img>"", ""key_press"": null, ""test_part"": ""training"", ""next_elem"": ""Slide42"", ""trial_type"": ""html-keyboard-response"", ""trial_index"": 40, ""time_elapsed"": 103010, ""internal_node_id"": ""0.0-6.0-0.0-0.5"", ""uniqueId"": ""debugKJES3:debug3qbPN"", ""condition"": 0, ""counterbalance"": 0}"
debugKJES3:debug3qbPN,41,1.59518E+12,"{""rt"": null, ""stimulus"": ""<img src=\""/static/images/icons/Slide42.png\""></img>"", ""key_press"": null, ""test_part"": ""training"", ""next_elem"": ""Slide60"", ""trial_type"": ""html-keyboard-response"", ""trial_index"": 41, ""time_elapsed"": 104219, ""internal_node_id"": ""0.0-6.0-0.0-0.6"", ""uniqueId"": ""debugKJES3:debug3qbPN"", ""condition"": 0, ""counterbalance"": 0}"
debugKJES3:debug3qbPN,42,1.59518E+12,"{""rt"": null, ""stimulus"": ""<img src=\""/static/images/icons/Slide60.png\""></img>"", ""key_press"": null, ""test_part"": ""training"", ""next_elem"": ""Slide27"", ""trial_type"": ""html-keyboard-response"", ""trial_index"": 42, ""time_elapsed"": 105428, ""internal_node_id"": ""0.0-6.0-0.0-0.7"", ""uniqueId"": ""debugKJES3:debug3qbPN"", ""condition"": 0, ""counterbalance"": 0}"
debugKJES3:debug3qbPN,43,1.59518E+12,"{""rt"": null, ""stimulus"": ""<img src=\""/static/images/icons/Slide27.png\""></img>"", ""key_press"": null, ""test_part"": ""training"", ""next_elem"": ""Slide27"", ""trial_type"": ""html-keyboard-response"", ""trial_index"": 43, ""time_elapsed"": 106635, ""internal_node_id"": ""0.0-6.0-0.0-0.8"", ""uniqueId"": ""debugKJES3:debug3qbPN"", ""condition"": 0, ""counterbalance"": 0}"
debugKJES3:debug3qbPN,44,1.59518E+12,"{""rt"": null, ""stimulus"": ""<img src=\""/static/images/icons/Slide27.png\""></img>"", ""key_press"": null, ""test_part"": ""training"", ""next_elem"": ""Slide27"", ""trial_type"": ""html-keyboard-response"", ""trial_index"": 44, ""time_elapsed"": 107842, ""internal_node_id"": ""0.0-6.0-0.0-0.9"", ""uniqueId"": ""debugKJES3:debug3qbPN"", ""condition"": 0, ""counterbalance"": 0}"
debugKJES3:debug3qbPN,45,1.59518E+12,"{""rt"": null, ""stimulus"": ""<img src=\""/static/images/icons/Slide27.png\""></img>"", ""key_press"": null, ""test_part"": ""training"", ""next_elem"": ""Slide42"", ""trial_type"": ""html-keyboard-response"", ""trial_index"": 45, ""time_elapsed"": 109050, ""internal_node_id"": ""0.0-6.0-0.0-0.10"", ""uniqueId"": ""debugKJES3:debug3qbPN"", ""condition"": 0, ""counterbalance"": 0}"
debugKJES3:debug3qbPN,46,1.59518E+12,"{""rt"": null, ""stimulus"": ""<img src=\""/static/images/icons/Slide42.png\""></img>"", ""key_press"": null, ""test_part"": ""training"", ""next_elem"": ""Slide60"", ""trial_type"": ""html-keyboard-response"", ""trial_index"": 46, ""time_elapsed"": 110260, ""internal_node_id"": ""0.0-6.0-0.0-0.11"", ""uniqueId"": ""debugKJES3:debug3qbPN"", ""condition"": 0, ""counterbalance"": 0}"
debugKJES3:debug3qbPN,47,1.59518E+12,"{""rt"": null, ""stimulus"": ""<img src=\""/static/images/icons/Slide60.png\""></img>"", ""key_press"": null, ""test_part"": ""training"", ""next_elem"": ""Slide60"", ""trial_type"": ""html-keyboard-response"", ""trial_index"": 47, ""time_elapsed"": 111470, ""internal_node_id"": ""0.0-6.0-0.0-0.12"", ""uniqueId"": ""debugKJES3:debug3qbPN"", ""condition"": 0, ""counterbalance"": 0}"
debugKJES3:debug3qbPN,48,1.59518E+12,"{""rt"": null, ""stimulus"": ""<img src=\""/static/images/icons/Slide60.png\""></img>"", ""key_press"": null, ""test_part"": ""training"", ""next_elem"": ""Slide27"", ""trial_type"": ""html-keyboard-response"", ""trial_index"": 48, ""time_elapsed"": 112679, ""internal_node_id"": ""0.0-6.0-0.0-0.13"", ""uniqueId"": ""debugKJES3:debug3qbPN"", ""condition"": 0, ""counterbalance"": 0}"
debugKJES3:debug3qbPN,49,1.59518E+12,"{""rt"": null, ""stimulus"": ""<img src=\""/static/images/icons/Slide27.png\""></img>"", ""key_press"": null, ""test_part"": ""training"", ""next_elem"": ""Slide42"", ""trial_type"": ""html-keyboard-response"", ""trial_index"": 49, ""time_elapsed"": 113889, ""internal_node_id"": ""0.0-6.0-0.0-0.14"", ""uniqueId"": ""debugKJES3:debug3qbPN"", ""condition"": 0, ""counterbalance"": 0}"
debugKJES3:debug3qbPN,50,1.59518E+12,"{""rt"": null, ""stimulus"": ""<img src=\""/static/images/icons/Slide42.png\""></img>"", ""key_press"": null, ""test_part"": ""training"", ""next_elem"": ""Slide42"", ""trial_type"": ""html-keyboard-response"", ""trial_index"": 50, ""time_elapsed"": 115099, ""internal_node_id"": ""0.0-6.0-0.0-0.15"", ""uniqueId"": ""debugKJES3:debug3qbPN"", ""condition"": 0, ""counterbalance"": 0}"
debugKJES3:debug3qbPN,51,1.59518E+12,"{""rt"": null, ""stimulus"": ""<img src=\""/static/images/icons/Slide42.png\""></img>"", ""key_press"": null, ""test_part"": ""training"", ""next_elem"": ""Slide42"", ""trial_type"": ""html-keyboard-response"", ""trial_index"": 51, ""time_elapsed"": 116311, ""internal_node_id"": ""0.0-6.0-0.0-0.16"", ""uniqueId"": ""debugKJES3:debug3qbPN"", ""condition"": 0, ""counterbalance"": 0}"
debugKJES3:debug3qbPN,52,1.59518E+12,"{""rt"": null, ""stimulus"": ""<img src=\""/static/images/icons/Slide42.png\""></img>"", ""key_press"": null, ""test_part"": ""training"", ""next_elem"": ""Slide60"", ""trial_type"": ""html-keyboard-response"", ""trial_index"": 52, ""time_elapsed"": 117524, ""internal_node_id"": ""0.0-6.0-0.0-0.17"", ""uniqueId"": ""debugKJES3:debug3qbPN"", ""condition"": 0, ""counterbalance"": 0}"
debugKJES3:debug3qbPN,53,1.59518E+12,"{""rt"": null, ""stimulus"": ""<img src=\""/static/images/icons/Slide60.png\""></img>"", ""key_press"": null, ""test_part"": ""training"", ""next_elem"": ""Slide42"", ""trial_type"": ""html-keyboard-response"", ""trial_index"": 53, ""time_elapsed"": 118731, ""internal_node_id"": ""0.0-6.0-0.0-0.18"", ""uniqueId"": ""debugKJES3:debug3qbPN"", ""condition"": 0, ""counterbalance"": 0}"
debugKJES3:debug3qbPN,54,1.59518E+12,"{""rt"": null, ""stimulus"": ""<img src=\""/static/images/icons/Slide42.png\""></img>"", ""key_press"": null, ""test_part"": ""training"", ""next_elem"": ""Slide60"", ""trial_type"": ""html-keyboard-response"", ""trial_index"": 54, ""time_elapsed"": 119943, ""internal_node_id"": ""0.0-6.0-0.0-0.19"", ""uniqueId"": ""debugKJES3:debug3qbPN"", ""condition"": 0, ""counterbalance"": 0}"
debugKJES3:debug3qbPN,55,1.59518E+12,"{""rt"": null, ""stimulus"": ""<img src=\""/static/images/icons/Slide60.png\""></img>"", ""key_press"": null, ""test_part"": ""training"", ""next_elem"": ""Slide42"", ""trial_type"": ""html-keyboard-response"", ""trial_index"": 55, ""time_elapsed"": 121153, ""internal_node_id"": ""0.0-6.0-0.0-0.20"", ""uniqueId"": ""debugKJES3:debug3qbPN"", ""condition"": 0, ""counterbalance"": 0}"
debugKJES3:debug3qbPN,56,1.59518E+12,"{""rt"": null, ""stimulus"": ""<img src=\""/static/images/icons/Slide42.png\""></img>"", ""key_press"": null, ""test_part"": ""training"", ""next_elem"": ""Slide42"", ""trial_type"": ""html-keyboard-response"", ""trial_index"": 56, ""time_elapsed"": 122360, ""internal_node_id"": ""0.0-6.0-0.0-0.21"", ""uniqueId"": ""debugKJES3:debug3qbPN"", ""condition"": 0, ""counterbalance"": 0}"
debugKJES3:debug3qbPN,57,1.59518E+12,"{""rt"": null, ""stimulus"": ""<img src=\""/static/images/icons/Slide42.png\""></img>"", ""key_press"": null, ""test_part"": ""training"", ""next_elem"": ""Slide27"", ""trial_type"": ""html-keyboard-response"", ""trial_index"": 57, ""time_elapsed"": 123569, ""internal_node_id"": ""0.0-6.0-0.0-0.22"", ""uniqueId"": ""debugKJES3:debug3qbPN"", ""condition"": 0, ""counterbalance"": 0}"
debugKJES3:debug3qbPN,58,1.59518E+12,"{""rt"": null, ""stimulus"": ""<img src=\""/static/images/icons/Slide27.png\""></img>"", ""key_press"": null, ""test_part"": ""training"", ""next_elem"": ""Slide60"", ""trial_type"": ""html-keyboard-response"", ""trial_index"": 58, ""time_elapsed"": 124778, ""internal_node_id"": ""0.0-6.0-0.0-0.23"", ""uniqueId"": ""debugKJES3:debug3qbPN"", ""condition"": 0, ""counterbalance"": 0}"
debugKJES3:debug3qbPN,59,1.59518E+12,"{""rt"": null, ""stimulus"": ""<img src=\""/static/images/icons/Slide60.png\""></img>"", ""key_press"": null, ""test_part"": ""training"", ""next_elem"": ""Slide60"", ""trial_type"": ""html-keyboard-response"", ""trial_index"": 59, ""time_elapsed"": 125983, ""internal_node_id"": ""0.0-6.0-0.0-0.24"", ""uniqueId"": ""debugKJES3:debug3qbPN"", ""condition"": 0, ""counterbalance"": 0}"
debugKJES3:debug3qbPN,60,1.59518E+12,"{""rt"": null, ""stimulus"": ""<img src=\""/static/images/icons/Slide60.png\""></img>"", ""key_press"": null, ""test_part"": ""training"", ""next_elem"": ""Slide60"", ""trial_type"": ""html-keyboard-response"", ""trial_index"": 60, ""time_elapsed"": 127187, ""internal_node_id"": ""0.0-6.0-0.0-0.25"", ""uniqueId"": ""debugKJES3:debug3qbPN"", ""condition"": 0, ""counterbalance"": 0}"
debugKJES3:debug3qbPN,61,1.59518E+12,"{""rt"": null, ""stimulus"": ""<img src=\""/static/images/icons/Slide60.png\""></img>"", ""key_press"": null, ""test_part"": ""training"", ""next_elem"": ""Slide27"", ""trial_type"": ""html-keyboard-response"", ""trial_index"": 61, ""time_elapsed"": 128394, ""internal_node_id"": ""0.0-6.0-0.0-0.26"", ""uniqueId"": ""debugKJES3:debug3qbPN"", ""condition"": 0, ""counterbalance"": 0}"
debugKJES3:debug3qbPN,62,1.59518E+12,"{""rt"": null, ""stimulus"": ""<img src=\""/static/images/icons/Slide27.png\""></img>"", ""key_press"": null, ""test_part"": ""training"", ""next_elem"": ""Slide60"", ""trial_type"": ""html-keyboard-response"", ""trial_index"": 62, ""time_elapsed"": 129601, ""internal_node_id"": ""0.0-6.0-0.0-0.27"", ""uniqueId"": ""debugKJES3:debug3qbPN"", ""condition"": 0, ""counterbalance"": 0}"
debugKJES3:debug3qbPN,63,1.59518E+12,"{""rt"": null, ""stimulus"": ""<img src=\""/static/images/icons/Slide60.png\""></img>"", ""key_press"": null, ""test_part"": ""training"", ""next_elem"": ""Slide27"", ""trial_type"": ""html-keyboard-response"", ""trial_index"": 63, ""time_elapsed"": 130808, ""internal_node_id"": ""0.0-6.0-0.0-0.28"", ""uniqueId"": ""debugKJES3:debug3qbPN"", ""condition"": 0, ""counterbalance"": 0}"
debugKJES3:debug3qbPN,64,1.59518E+12,"{""rt"": null, ""stimulus"": ""Next sequence coming up.."", ""key_press"": null, ""test_part"": ""between_sequences"", ""trial_type"": ""html-keyboard-response"", ""trial_index"": 64, ""time_elapsed"": 134618, ""internal_node_id"": ""0.0-6.0-1.0"", ""uniqueId"": ""debugKJES3:debug3qbPN"", ""condition"": 0, ""counterbalance"": 0}"
debugKJES3:debug3qbPN,65,1.59518E+12,"{""rt"": null, ""stimulus"": ""<img src=\""/static/images/icons/Slide45.png\""></img>"", ""key_press"": null, ""test_part"": ""training"", ""next_elem"": ""Slide50"", ""trial_type"": ""html-keyboard-response"", ""trial_index"": 65, ""time_elapsed"": 135531, ""internal_node_id"": ""0.0-7.0-0.0-0.0"", ""uniqueId"": ""debugKJES3:debug3qbPN"", ""condition"": 0, ""counterbalance"": 0}"
debugKJES3:debug3qbPN,66,1.59518E+12,"{""rt"": null, ""stimulus"": ""<img src=\""/static/images/icons/Slide50.png\""></img>"", ""key_press"": null, ""test_part"": ""training"", ""next_elem"": ""Slide14"", ""trial_type"": ""html-keyboard-response"", ""trial_index"": 66, ""time_elapsed"": 136736, ""internal_node_id"": ""0.0-7.0-0.0-0.1"", ""uniqueId"": ""debugKJES3:debug3qbPN"", ""condition"": 0, ""counterbalance"": 0}"
debugKJES3:debug3qbPN,67,1.59518E+12,"{""rt"": null, ""stimulus"": ""<img src=\""/static/images/icons/Slide14.png\""></img>"", ""key_press"": null, ""test_part"": ""training"", ""next_elem"": ""Slide50"", ""trial_type"": ""html-keyboard-response"", ""trial_index"": 67, ""time_elapsed"": 137939, ""internal_node_id"": ""0.0-7.0-0.0-0.2"", ""uniqueId"": ""debugKJES3:debug3qbPN"", ""condition"": 0, ""counterbalance"": 0}"
debugKJES3:debug3qbPN,68,1.59518E+12,"{""rt"": null, ""stimulus"": ""<img src=\""/static/images/icons/Slide50.png\""></img>"", ""key_press"": null, ""test_part"": ""training"", ""next_elem"": ""Slide14"", ""trial_type"": ""html-keyboard-response"", ""trial_index"": 68, ""time_elapsed"": 139150, ""internal_node_id"": ""0.0-7.0-0.0-0.3"", ""uniqueId"": ""debugKJES3:debug3qbPN"", ""condition"": 0, ""counterbalance"": 0}"
debugKJES3:debug3qbPN,69,1.59518E+12,"{""rt"": null, ""stimulus"": ""<img src=\""/static/images/icons/Slide14.png\""></img>"", ""key_press"": null, ""test_part"": ""training"", ""next_elem"": ""Slide45"", ""trial_type"": ""html-keyboard-response"", ""trial_index"": 69, ""time_elapsed"": 140390, ""internal_node_id"": ""0.0-7.0-0.0-0.4"", ""uniqueId"": ""debugKJES3:debug3qbPN"", ""condition"": 0, ""counterbalance"": 0}"
debugKJES3:debug3qbPN,70,1.59518E+12,"{""rt"": null, ""stimulus"": ""<img src=\""/static/images/icons/Slide45.png\""></img>"", ""key_press"": null, ""test_part"": ""training"", ""next_elem"": ""Slide50"", ""trial_type"": ""html-keyboard-response"", ""trial_index"": 70, ""time_elapsed"": 141599, ""internal_node_id"": ""0.0-7.0-0.0-0.5"", ""uniqueId"": ""debugKJES3:debug3qbPN"", ""condition"": 0, ""counterbalance"": 0}"
debugKJES3:debug3qbPN,71,1.59518E+12,"{""rt"": null, ""stimulus"": ""<img src=\""/static/images/icons/Slide50.png\""></img>"", ""key_press"": null, ""test_part"": ""training"", ""next_elem"": ""Slide45"", ""trial_type"": ""html-keyboard-response"", ""trial_index"": 71, ""time_elapsed"": 142807, ""internal_node_id"": ""0.0-7.0-0.0-0.6"", ""uniqueId"": ""debugKJES3:debug3qbPN"", ""condition"": 0, ""counterbalance"": 0}"
debugKJES3:debug3qbPN,72,1.59518E+12,"{""rt"": null, ""stimulus"": ""<img src=\""/static/images/icons/Slide45.png\""></img>"", ""key_press"": null, ""test_part"": ""training"", ""next_elem"": ""Slide14"", ""trial_type"": ""html-keyboard-response"", ""trial_index"": 72, ""time_elapsed"": 144016, ""internal_node_id"": ""0.0-7.0-0.0-0.7"", ""uniqueId"": ""debugKJES3:debug3qbPN"", ""condition"": 0, ""counterbalance"": 0}"
debugKJES3:debug3qbPN,73,1.59518E+12,"{""rt"": null, ""stimulus"": ""<img src=\""/static/images/icons/Slide14.png\""></img>"", ""key_press"": null, ""test_part"": ""training"", ""next_elem"": ""Slide14"", ""trial_type"": ""html-keyboard-response"", ""trial_index"": 73, ""time_elapsed"": 145225, ""internal_node_id"": ""0.0-7.0-0.0-0.8"", ""uniqueId"": ""debugKJES3:debug3qbPN"", ""condition"": 0, ""counterbalance"": 0}"
debugKJES3:debug3qbPN,74,1.59518E+12,"{""rt"": null, ""stimulus"": ""<img src=\""/static/images/icons/Slide14.png\""></img>"", ""key_press"": null, ""test_part"": ""training"", ""next_elem"": ""Slide14"", ""trial_type"": ""html-keyboard-response"", ""trial_index"": 74, ""time_elapsed"": 146433, ""internal_node_id"": ""0.0-7.0-0.0-0.9"", ""uniqueId"": ""debugKJES3:debug3qbPN"", ""condition"": 0, ""counterbalance"": 0}"
debugKJES3:debug3qbPN,75,1.59518E+12,"{""rt"": null, ""stimulus"": ""<img src=\""/static/images/icons/Slide14.png\""></img>"", ""key_press"": null, ""test_part"": ""training"", ""next_elem"": ""Slide50"", ""trial_type"": ""html-keyboard-response"", ""trial_index"": 75, ""time_elapsed"": 147640, ""internal_node_id"": ""0.0-7.0-0.0-0.10"", ""uniqueId"": ""debugKJES3:debug3qbPN"", ""condition"": 0, ""counterbalance"": 0}"
debugKJES3:debug3qbPN,76,1.59518E+12,"{""rt"": null, ""stimulus"": ""<img src=\""/static/images/icons/Slide50.png\""></img>"", ""key_press"": null, ""test_part"": ""training"", ""next_elem"": ""Slide45"", ""trial_type"": ""html-keyboard-response"", ""trial_index"": 76, ""time_elapsed"": 148846, ""internal_node_id"": ""0.0-7.0-0.0-0.11"", ""uniqueId"": ""debugKJES3:debug3qbPN"", ""condition"": 0, ""counterbalance"": 0}"
debugKJES3:debug3qbPN,77,1.59518E+12,"{""rt"": null, ""stimulus"": ""<img src=\""/static/images/icons/Slide45.png\""></img>"", ""key_press"": null, ""test_part"": ""training"", ""next_elem"": ""Slide45"", ""trial_type"": ""html-keyboard-response"", ""trial_index"": 77, ""time_elapsed"": 150056, ""internal_node_id"": ""0.0-7.0-0.0-0.12"", ""uniqueId"": ""debugKJES3:debug3qbPN"", ""condition"": 0, ""counterbalance"": 0}"
debugKJES3:debug3qbPN,78,1.59518E+12,"{""rt"": null, ""stimulus"": ""<img src=\""/static/images/icons/Slide45.png\""></img>"", ""key_press"": null, ""test_part"": ""training"", ""next_elem"": ""Slide14"", ""trial_type"": ""html-keyboard-response"", ""trial_index"": 78, ""time_elapsed"": 151270, ""internal_node_id"": ""0.0-7.0-0.0-0.13"", ""uniqueId"": ""debugKJES3:debug3qbPN"", ""condition"": 0, ""counterbalance"": 0}"
debugKJES3:debug3qbPN,79,1.59518E+12,"{""rt"": null, ""stimulus"": ""<img src=\""/static/images/icons/Slide14.png\""></img>"", ""key_press"": null, ""test_part"": ""training"", ""next_elem"": ""Slide50"", ""trial_type"": ""html-keyboard-response"", ""trial_index"": 79, ""time_elapsed"": 152481, ""internal_node_id"": ""0.0-7.0-0.0-0.14"", ""uniqueId"": ""debugKJES3:debug3qbPN"", ""condition"": 0, ""counterbalance"": 0}"
debugKJES3:debug3qbPN,80,1.59518E+12,"{""rt"": null, ""stimulus"": ""<img src=\""/static/images/icons/Slide50.png\""></img>"", ""key_press"": null, ""test_part"": ""training"", ""next_elem"": ""Slide50"", ""trial_type"": ""html-keyboard-response"", ""trial_index"": 80, ""time_elapsed"": 153695, ""internal_node_id"": ""0.0-7.0-0.0-0.15"", ""uniqueId"": ""debugKJES3:debug3qbPN"", ""condition"": 0, ""counterbalance"": 0}"
debugKJES3:debug3qbPN,81,1.59518E+12,"{""rt"": null, ""stimulus"": ""<img src=\""/static/images/icons/Slide50.png\""></img>"", ""key_press"": null, ""test_part"": ""training"", ""next_elem"": ""Slide50"", ""trial_type"": ""html-keyboard-response"", ""trial_index"": 81, ""time_elapsed"": 154906, ""internal_node_id"": ""0.0-7.0-0.0-0.16"", ""uniqueId"": ""debugKJES3:debug3qbPN"", ""condition"": 0, ""counterbalance"": 0}"
debugKJES3:debug3qbPN,82,1.59518E+12,"{""rt"": null, ""stimulus"": ""<img src=\""/static/images/icons/Slide50.png\""></img>"", ""key_press"": null, ""test_part"": ""training"", ""next_elem"": ""Slide45"", ""trial_type"": ""html-keyboard-response"", ""trial_index"": 82, ""time_elapsed"": 156114, ""internal_node_id"": ""0.0-7.0-0.0-0.17"", ""uniqueId"": ""debugKJES3:debug3qbPN"", ""condition"": 0, ""counterbalance"": 0}"
debugKJES3:debug3qbPN,83,1.59518E+12,"{""rt"": null, ""stimulus"": ""<img src=\""/static/images/icons/Slide45.png\""></img>"", ""key_press"": null, ""test_part"": ""training"", ""next_elem"": ""Slide50"", ""trial_type"": ""html-keyboard-response"", ""trial_index"": 83, ""time_elapsed"": 157322, ""internal_node_id"": ""0.0-7.0-0.0-0.18"", ""uniqueId"": ""debugKJES3:debug3qbPN"", ""condition"": 0, ""counterbalance"": 0}"
debugKJES3:debug3qbPN,84,1.59518E+12,"{""rt"": null, ""stimulus"": ""<img src=\""/static/images/icons/Slide50.png\""></img>"", ""key_press"": null, ""test_part"": ""training"", ""next_elem"": ""Slide45"", ""trial_type"": ""html-keyboard-response"", ""trial_index"": 84, ""time_elapsed"": 158530, ""internal_node_id"": ""0.0-7.0-0.0-0.19"", ""uniqueId"": ""debugKJES3:debug3qbPN"", ""condition"": 0, ""counterbalance"": 0}"
debugKJES3:debug3qbPN,85,1.59518E+12,"{""rt"": null, ""stimulus"": ""<img src=\""/static/images/icons/Slide45.png\""></img>"", ""key_press"": null, ""test_part"": ""training"", ""next_elem"": ""Slide50"", ""trial_type"": ""html-keyboard-response"", ""trial_index"": 85, ""time_elapsed"": 159738, ""internal_node_id"": ""0.0-7.0-0.0-0.20"", ""uniqueId"": ""debugKJES3:debug3qbPN"", ""condition"": 0, ""counterbalance"": 0}"
debugKJES3:debug3qbPN,86,1.59518E+12,"{""rt"": null, ""stimulus"": ""<img src=\""/static/images/icons/Slide50.png\""></img>"", ""key_press"": null, ""test_part"": ""training"", ""next_elem"": ""Slide50"", ""trial_type"": ""html-keyboard-response"", ""trial_index"": 86, ""time_elapsed"": 160945, ""internal_node_id"": ""0.0-7.0-0.0-0.21"", ""uniqueId"": ""debugKJES3:debug3qbPN"", ""condition"": 0, ""counterbalance"": 0}"
debugKJES3:debug3qbPN,87,1.59518E+12,"{""rt"": null, ""stimulus"": ""<img src=\""/static/images/icons/Slide50.png\""></img>"", ""key_press"": null, ""test_part"": ""training"", ""next_elem"": ""Slide14"", ""trial_type"": ""html-keyboard-response"", ""trial_index"": 87, ""time_elapsed"": 162153, ""internal_node_id"": ""0.0-7.0-0.0-0.22"", ""uniqueId"": ""debugKJES3:debug3qbPN"", ""condition"": 0, ""counterbalance"": 0}"
debugKJES3:debug3qbPN,88,1.59518E+12,"{""rt"": null, ""stimulus"": ""<img src=\""/static/images/icons/Slide14.png\""></img>"", ""key_press"": null, ""test_part"": ""training"", ""next_elem"": ""Slide45"", ""trial_type"": ""html-keyboard-response"", ""trial_index"": 88, ""time_elapsed"": 163360, ""internal_node_id"": ""0.0-7.0-0.0-0.23"", ""uniqueId"": ""debugKJES3:debug3qbPN"", ""condition"": 0, ""counterbalance"": 0}"
debugKJES3:debug3qbPN,89,1.59518E+12,"{""rt"": null, ""stimulus"": ""<img src=\""/static/images/icons/Slide45.png\""></img>"", ""key_press"": null, ""test_part"": ""training"", ""next_elem"": ""Slide45"", ""trial_type"": ""html-keyboard-response"", ""trial_index"": 89, ""time_elapsed"": 164568, ""internal_node_id"": ""0.0-7.0-0.0-0.24"", ""uniqueId"": ""debugKJES3:debug3qbPN"", ""condition"": 0, ""counterbalance"": 0}"
debugKJES3:debug3qbPN,90,1.59518E+12,"{""rt"": null, ""stimulus"": ""<img src=\""/static/images/icons/Slide45.png\""></img>"", ""key_press"": null, ""test_part"": ""training"", ""next_elem"": ""Slide45"", ""trial_type"": ""html-keyboard-response"", ""trial_index"": 90, ""time_elapsed"": 165775, ""internal_node_id"": ""0.0-7.0-0.0-0.25"", ""uniqueId"": ""debugKJES3:debug3qbPN"", ""condition"": 0, ""counterbalance"": 0}"
debugKJES3:debug3qbPN,91,1.59518E+12,"{""rt"": null, ""stimulus"": ""<img src=\""/static/images/icons/Slide45.png\""></img>"", ""key_press"": null, ""test_part"": ""training"", ""next_elem"": ""Slide14"", ""trial_type"": ""html-keyboard-response"", ""trial_index"": 91, ""time_elapsed"": 166981, ""internal_node_id"": ""0.0-7.0-0.0-0.26"", ""uniqueId"": ""debugKJES3:debug3qbPN"", ""condition"": 0, ""counterbalance"": 0}"
debugKJES3:debug3qbPN,92,1.59518E+12,"{""rt"": null, ""stimulus"": ""<img src=\""/static/images/icons/Slide14.png\""></img>"", ""key_press"": null, ""test_part"": ""training"", ""next_elem"": ""Slide45"", ""trial_type"": ""html-keyboard-response"", ""trial_index"": 92, ""time_elapsed"": 168188, ""internal_node_id"": ""0.0-7.0-0.0-0.27"", ""uniqueId"": ""debugKJES3:debug3qbPN"", ""condition"": 0, ""counterbalance"": 0}"
debugKJES3:debug3qbPN,93,1.59518E+12,"{""rt"": null, ""stimulus"": ""<img src=\""/static/images/icons/Slide45.png\""></img>"", ""key_press"": null, ""test_part"": ""training"", ""next_elem"": ""Slide14"", ""trial_type"": ""html-keyboard-response"", ""trial_index"": 93, ""time_elapsed"": 169396, ""internal_node_id"": ""0.0-7.0-0.0-0.28"", ""uniqueId"": ""debugKJES3:debug3qbPN"", ""condition"": 0, ""counterbalance"": 0}"
debugKJES3:debug3qbPN,94,1.59518E+12,"{""rt"": null, ""stimulus"": ""Next sequence coming up.."", ""key_press"": null, ""test_part"": ""between_sequences"", ""trial_type"": ""html-keyboard-response"", ""trial_index"": 94, ""time_elapsed"": 173205, ""internal_node_id"": ""0.0-7.0-1.0"", ""uniqueId"": ""debugKJES3:debug3qbPN"", ""condition"": 0, ""counterbalance"": 0}"
debugKJES3:debug3qbPN,95,1.59518E+12,"{""rt"": null, ""stimulus"": ""<img src=\""/static/images/icons/Slide58.png\""></img>"", ""key_press"": null, ""test_part"": ""training"", ""next_elem"": ""Slide8"", ""trial_type"": ""html-keyboard-response"", ""trial_index"": 95, ""time_elapsed"": 174114, ""internal_node_id"": ""0.0-8.0-0.0-0.0"", ""uniqueId"": ""debugKJES3:debug3qbPN"", ""condition"": 0, ""counterbalance"": 0}"
debugKJES3:debug3qbPN,96,1.59518E+12,"{""rt"": null, ""stimulus"": ""<img src=\""/static/images/icons/Slide8.png\""></img>"", ""key_press"": null, ""test_part"": ""training"", ""next_elem"": ""Slide16"", ""trial_type"": ""html-keyboard-response"", ""trial_index"": 96, ""time_elapsed"": 175321, ""internal_node_id"": ""0.0-8.0-0.0-0.1"", ""uniqueId"": ""debugKJES3:debug3qbPN"", ""condition"": 0, ""counterbalance"": 0}"
debugKJES3:debug3qbPN,97,1.59518E+12,"{""rt"": null, ""stimulus"": ""<img src=\""/static/images/icons/Slide16.png\""></img>"", ""key_press"": null, ""test_part"": ""training"", ""next_elem"": ""Slide8"", ""trial_type"": ""html-keyboard-response"", ""trial_index"": 97, ""time_elapsed"": 176527, ""internal_node_id"": ""0.0-8.0-0.0-0.2"", ""uniqueId"": ""debugKJES3:debug3qbPN"", ""condition"": 0, ""counterbalance"": 0}"
debugKJES3:debug3qbPN,98,1.59518E+12,"{""rt"": null, ""stimulus"": ""<img src=\""/static/images/icons/Slide8.png\""></img>"", ""key_press"": null, ""test_part"": ""training"", ""next_elem"": ""Slide16"", ""trial_type"": ""html-keyboard-response"", ""trial_index"": 98, ""time_elapsed"": 177744, ""internal_node_id"": ""0.0-8.0-0.0-0.3"", ""uniqueId"": ""debugKJES3:debug3qbPN"", ""condition"": 0, ""counterbalance"": 0}"
debugKJES3:debug3qbPN,99,1.59518E+12,"{""rt"": null, ""stimulus"": ""<img src=\""/static/images/icons/Slide16.png\""></img>"", ""key_press"": null, ""test_part"": ""training"", ""next_elem"": ""Slide58"", ""trial_type"": ""html-keyboard-response"", ""trial_index"": 99, ""time_elapsed"": 178952, ""internal_node_id"": ""0.0-8.0-0.0-0.4"", ""uniqueId"": ""debugKJES3:debug3qbPN"", ""condition"": 0, ""counterbalance"": 0}"
debugKJES3:debug3qbPN,100,1.59518E+12,"{""rt"": null, ""stimulus"": ""<img src=\""/static/images/icons/Slide58.png\""></img>"", ""key_press"": null, ""test_part"": ""training"", ""next_elem"": ""Slide8"", ""trial_type"": ""html-keyboard-response"", ""trial_index"": 100, ""time_elapsed"": 180160, ""internal_node_id"": ""0.0-8.0-0.0-0.5"", ""uniqueId"": ""debugKJES3:debug3qbPN"", ""condition"": 0, ""counterbalance"": 0}"
debugKJES3:debug3qbPN,101,1.59518E+12,"{""rt"": null, ""stimulus"": ""<img src=\""/static/images/icons/Slide8.png\""></img>"", ""key_press"": null, ""test_part"": ""training"", ""next_elem"": ""Slide58"", ""trial_type"": ""html-keyboard-response"", ""trial_index"": 101, ""time_elapsed"": 181367, ""internal_node_id"": ""0.0-8.0-0.0-0.6"", ""uniqueId"": ""debugKJES3:debug3qbPN"", ""condition"": 0, ""counterbalance"": 0}"
debugKJES3:debug3qbPN,102,1.59518E+12,"{""rt"": null, ""stimulus"": ""<img src=\""/static/images/icons/Slide58.png\""></img>"", ""key_press"": null, ""test_part"": ""training"", ""next_elem"": ""Slide16"", ""trial_type"": ""html-keyboard-response"", ""trial_index"": 102, ""time_elapsed"": 182574, ""internal_node_id"": ""0.0-8.0-0.0-0.7"", ""uniqueId"": ""debugKJES3:debug3qbPN"", ""condition"": 0, ""counterbalance"": 0}"
debugKJES3:debug3qbPN,103,1.59518E+12,"{""rt"": null, ""stimulus"": ""<img src=\""/static/images/icons/Slide16.png\""></img>"", ""key_press"": null, ""test_part"": ""training"", ""next_elem"": ""Slide16"", ""trial_type"": ""html-keyboard-response"", ""trial_index"": 103, ""time_elapsed"": 183781, ""internal_node_id"": ""0.0-8.0-0.0-0.8"", ""uniqueId"": ""debugKJES3:debug3qbPN"", ""condition"": 0, ""counterbalance"": 0}"
debugKJES3:debug3qbPN,104,1.59518E+12,"{""rt"": null, ""stimulus"": ""<img src=\""/static/images/icons/Slide16.png\""></img>"", ""key_press"": null, ""test_part"": ""training"", ""next_elem"": ""Slide16"", ""trial_type"": ""html-keyboard-response"", ""trial_index"": 104, ""time_elapsed"": 184989, ""internal_node_id"": ""0.0-8.0-0.0-0.9"", ""uniqueId"": ""debugKJES3:debug3qbPN"", ""condition"": 0, ""counterbalance"": 0}"
debugKJES3:debug3qbPN,105,1.59518E+12,"{""rt"": null, ""stimulus"": ""<img src=\""/static/images/icons/Slide16.png\""></img>"", ""key_press"": null, ""test_part"": ""training"", ""next_elem"": ""Slide8"", ""trial_type"": ""html-keyboard-response"", ""trial_index"": 105, ""time_elapsed"": 186194, ""internal_node_id"": ""0.0-8.0-0.0-0.10"", ""uniqueId"": ""debugKJES3:debug3qbPN"", ""condition"": 0, ""counterbalance"": 0}"
debugKJES3:debug3qbPN,106,1.59518E+12,"{""rt"": null, ""stimulus"": ""<img src=\""/static/images/icons/Slide8.png\""></img>"", ""key_press"": null, ""test_part"": ""training"", ""next_elem"": ""Slide58"", ""trial_type"": ""html-keyboard-response"", ""trial_index"": 106, ""time_elapsed"": 187399, ""internal_node_id"": ""0.0-8.0-0.0-0.11"", ""uniqueId"": ""debugKJES3:debug3qbPN"", ""condition"": 0, ""counterbalance"": 0}"
debugKJES3:debug3qbPN,107,1.59518E+12,"{""rt"": null, ""stimulus"": ""<img src=\""/static/images/icons/Slide58.png\""></img>"", ""key_press"": null, ""test_part"": ""training"", ""next_elem"": ""Slide58"", ""trial_type"": ""html-keyboard-response"", ""trial_index"": 107, ""time_elapsed"": 188608, ""internal_node_id"": ""0.0-8.0-0.0-0.12"", ""uniqueId"": ""debugKJES3:debug3qbPN"", ""condition"": 0, ""counterbalance"": 0}"
debugKJES3:debug3qbPN,108,1.59518E+12,"{""rt"": null, ""stimulus"": ""<img src=\""/static/images/icons/Slide58.png\""></img>"", ""key_press"": null, ""test_part"": ""training"", ""next_elem"": ""Slide16"", ""trial_type"": ""html-keyboard-response"", ""trial_index"": 108, ""time_elapsed"": 189817, ""internal_node_id"": ""0.0-8.0-0.0-0.13"", ""uniqueId"": ""debugKJES3:debug3qbPN"", ""condition"": 0, ""counterbalance"": 0}"
debugKJES3:debug3qbPN,109,1.59518E+12,"{""rt"": null, ""stimulus"": ""<img src=\""/static/images/icons/Slide16.png\""></img>"", ""key_press"": null, ""test_part"": ""training"", ""next_elem"": ""Slide8"", ""trial_type"": ""html-keyboard-response"", ""trial_index"": 109, ""time_elapsed"": 191025, ""internal_node_id"": ""0.0-8.0-0.0-0.14"", ""uniqueId"": ""debugKJES3:debug3qbPN"", ""condition"": 0, ""counterbalance"": 0}"
debugKJES3:debug3qbPN,110,1.59518E+12,"{""rt"": null, ""stimulus"": ""<img src=\""/static/images/icons/Slide8.png\""></img>"", ""key_press"": null, ""test_part"": ""training"", ""next_elem"": ""Slide8"", ""trial_type"": ""html-keyboard-response"", ""trial_index"": 110, ""time_elapsed"": 192234, ""internal_node_id"": ""0.0-8.0-0.0-0.15"", ""uniqueId"": ""debugKJES3:debug3qbPN"", ""condition"": 0, ""counterbalance"": 0}"
debugKJES3:debug3qbPN,111,1.59518E+12,"{""rt"": null, ""stimulus"": ""<img src=\""/static/images/icons/Slide8.png\""></img>"", ""key_press"": null, ""test_part"": ""training"", ""next_elem"": ""Slide8"", ""trial_type"": ""html-keyboard-response"", ""trial_index"": 111, ""time_elapsed"": 193441, ""internal_node_id"": ""0.0-8.0-0.0-0.16"", ""uniqueId"": ""debugKJES3:debug3qbPN"", ""condition"": 0, ""counterbalance"": 0}"
debugKJES3:debug3qbPN,112,1.59518E+12,"{""rt"": null, ""stimulus"": ""<img src=\""/static/images/icons/Slide8.png\""></img>"", ""key_press"": null, ""test_part"": ""training"", ""next_elem"": ""Slide58"", ""trial_type"": ""html-keyboard-response"", ""trial_index"": 112, ""time_elapsed"": 194648, ""internal_node_id"": ""0.0-8.0-0.0-0.17"", ""uniqueId"": ""debugKJES3:debug3qbPN"", ""condition"": 0, ""counterbalance"": 0}"
debugKJES3:debug3qbPN,113,1.59518E+12,"{""rt"": null, ""stimulus"": ""<img src=\""/static/images/icons/Slide58.png\""></img>"", ""key_press"": null, ""test_part"": ""training"", ""next_elem"": ""Slide8"", ""trial_type"": ""html-keyboard-response"", ""trial_index"": 113, ""time_elapsed"": 195854, ""internal_node_id"": ""0.0-8.0-0.0-0.18"", ""uniqueId"": ""debugKJES3:debug3qbPN"", ""condition"": 0, ""counterbalance"": 0}"
debugKJES3:debug3qbPN,114,1.59518E+12,"{""rt"": null, ""stimulus"": ""<img src=\""/static/images/icons/Slide8.png\""></img>"", ""key_press"": null, ""test_part"": ""training"", ""next_elem"": ""Slide58"", ""trial_type"": ""html-keyboard-response"", ""trial_index"": 114, ""time_elapsed"": 197060, ""internal_node_id"": ""0.0-8.0-0.0-0.19"", ""uniqueId"": ""debugKJES3:debug3qbPN"", ""condition"": 0, ""counterbalance"": 0}"
debugKJES3:debug3qbPN,115,1.59518E+12,"{""rt"": null, ""stimulus"": ""<img src=\""/static/images/icons/Slide58.png\""></img>"", ""key_press"": null, ""test_part"": ""training"", ""next_elem"": ""Slide8"", ""trial_type"": ""html-keyboard-response"", ""trial_index"": 115, ""time_elapsed"": 198268, ""internal_node_id"": ""0.0-8.0-0.0-0.20"", ""uniqueId"": ""debugKJES3:debug3qbPN"", ""condition"": 0, ""counterbalance"": 0}"
debugKJES3:debug3qbPN,116,1.59518E+12,"{""rt"": null, ""stimulus"": ""<img src=\""/static/images/icons/Slide8.png\""></img>"", ""key_press"": null, ""test_part"": ""training"", ""next_elem"": ""Slide8"", ""trial_type"": ""html-keyboard-response"", ""trial_index"": 116, ""time_elapsed"": 199475, ""internal_node_id"": ""0.0-8.0-0.0-0.21"", ""uniqueId"": ""debugKJES3:debug3qbPN"", ""condition"": 0, ""counterbalance"": 0}"
debugKJES3:debug3qbPN,117,1.59518E+12,"{""rt"": null, ""stimulus"": ""<img src=\""/static/images/icons/Slide8.png\""></img>"", ""key_press"": null, ""test_part"": ""training"", ""next_elem"": ""Slide16"", ""trial_type"": ""html-keyboard-response"", ""trial_index"": 117, ""time_elapsed"": 200683, ""internal_node_id"": ""0.0-8.0-0.0-0.22"", ""uniqueId"": ""debugKJES3:debug3qbPN"", ""condition"": 0, ""counterbalance"": 0}"
debugKJES3:debug3qbPN,118,1.59518E+12,"{""rt"": null, ""stimulus"": ""<img src=\""/static/images/icons/Slide16.png\""></img>"", ""key_press"": null, ""test_part"": ""training"", ""next_elem"": ""Slide58"", ""trial_type"": ""html-keyboard-response"", ""trial_index"": 118, ""time_elapsed"": 201891, ""internal_node_id"": ""0.0-8.0-0.0-0.23"", ""uniqueId"": ""debugKJES3:debug3qbPN"", ""condition"": 0, ""counterbalance"": 0}"
debugKJES3:debug3qbPN,119,1.59518E+12,"{""rt"": null, ""stimulus"": ""<img src=\""/static/images/icons/Slide58.png\""></img>"", ""key_press"": null, ""test_part"": ""training"", ""next_elem"": ""Slide58"", ""trial_type"": ""html-keyboard-response"", ""trial_index"": 119, ""time_elapsed"": 203099, ""internal_node_id"": ""0.0-8.0-0.0-0.24"", ""uniqueId"": ""debugKJES3:debug3qbPN"", ""condition"": 0, ""counterbalance"": 0}"
debugKJES3:debug3qbPN,120,1.59518E+12,"{""rt"": null, ""stimulus"": ""<img src=\""/static/images/icons/Slide58.png\""></img>"", ""key_press"": null, ""test_part"": ""training"", ""next_elem"": ""Slide58"", ""trial_type"": ""html-keyboard-response"", ""trial_index"": 120, ""time_elapsed"": 204306, ""internal_node_id"": ""0.0-8.0-0.0-0.25"", ""uniqueId"": ""debugKJES3:debug3qbPN"", ""condition"": 0, ""counterbalance"": 0}"
debugKJES3:debug3qbPN,121,1.59518E+12,"{""rt"": null, ""stimulus"": ""<img src=\""/static/images/icons/Slide58.png\""></img>"", ""key_press"": null, ""test_part"": ""training"", ""next_elem"": ""Slide16"", ""trial_type"": ""html-keyboard-response"", ""trial_index"": 121, ""time_elapsed"": 205515, ""internal_node_id"": ""0.0-8.0-0.0-0.26"", ""uniqueId"": ""debugKJES3:debug3qbPN"", ""condition"": 0, ""counterbalance"": 0}"
debugKJES3:debug3qbPN,122,1.59518E+12,"{""rt"": null, ""stimulus"": ""<img src=\""/static/images/icons/Slide16.png\""></img>"", ""key_press"": null, ""test_part"": ""training"", ""next_elem"": ""Slide58"", ""trial_type"": ""html-keyboard-response"", ""trial_index"": 122, ""time_elapsed"": 206724, ""internal_node_id"": ""0.0-8.0-0.0-0.27"", ""uniqueId"": ""debugKJES3:debug3qbPN"", ""condition"": 0, ""counterbalance"": 0}"
debugKJES3:debug3qbPN,123,1.59518E+12,"{""rt"": null, ""stimulus"": ""<img src=\""/static/images/icons/Slide58.png\""></img>"", ""key_press"": null, ""test_part"": ""training"", ""next_elem"": ""Slide16"", ""trial_type"": ""html-keyboard-response"", ""trial_index"": 123, ""time_elapsed"": 207930, ""internal_node_id"": ""0.0-8.0-0.0-0.28"", ""uniqueId"": ""debugKJES3:debug3qbPN"", ""condition"": 0, ""counterbalance"": 0}"
debugKJES3:debug3qbPN,124,1.59518E+12,"{""rt"": null, ""stimulus"": ""Next sequence coming up.."", ""key_press"": null, ""test_part"": ""between_sequences"", ""trial_type"": ""html-keyboard-response"", ""trial_index"": 124, ""time_elapsed"": 211745, ""internal_node_id"": ""0.0-8.0-1.0"", ""uniqueId"": ""debugKJES3:debug3qbPN"", ""condition"": 0, ""counterbalance"": 0}"
debugKJES3:debug3qbPN,125,1.59518E+12,"{""rt"": null, ""stimulus"": ""<img src=\""/static/images/icons/Slide3.png\""></img>"", ""key_press"": null, ""test_part"": ""training"", ""next_elem"": ""Slide56"", ""trial_type"": ""html-keyboard-response"", ""trial_index"": 125, ""time_elapsed"": 212652, ""internal_node_id"": ""0.0-9.0-0.0-0.0"", ""uniqueId"": ""debugKJES3:debug3qbPN"", ""condition"": 0, ""counterbalance"": 0}"
debugKJES3:debug3qbPN,126,1.59518E+12,"{""rt"": null, ""stimulus"": ""<img src=\""/static/images/icons/Slide56.png\""></img>"", ""key_press"": null, ""test_part"": ""training"", ""next_elem"": ""Slide37"", ""trial_type"": ""html-keyboard-response"", ""trial_index"": 126, ""time_elapsed"": 213864, ""internal_node_id"": ""0.0-9.0-0.0-0.1"", ""uniqueId"": ""debugKJES3:debug3qbPN"", ""condition"": 0, ""counterbalance"": 0}"
debugKJES3:debug3qbPN,127,1.59518E+12,"{""rt"": null, ""stimulus"": ""<img src=\""/static/images/icons/Slide37.png\""></img>"", ""key_press"": null, ""test_part"": ""training"", ""next_elem"": ""Slide56"", ""trial_type"": ""html-keyboard-response"", ""trial_index"": 127, ""time_elapsed"": 215071, ""internal_node_id"": ""0.0-9.0-0.0-0.2"", ""uniqueId"": ""debugKJES3:debug3qbPN"", ""condition"": 0, ""counterbalance"": 0}"
debugKJES3:debug3qbPN,128,1.59518E+12,"{""rt"": null, ""stimulus"": ""<img src=\""/static/images/icons/Slide56.png\""></img>"", ""key_press"": null, ""test_part"": ""training"", ""next_elem"": ""Slide37"", ""trial_type"": ""html-keyboard-response"", ""trial_index"": 128, ""time_elapsed"": 216281, ""internal_node_id"": ""0.0-9.0-0.0-0.3"", ""uniqueId"": ""debugKJES3:debug3qbPN"", ""condition"": 0, ""counterbalance"": 0}"
debugKJES3:debug3qbPN,129,1.59518E+12,"{""rt"": null, ""stimulus"": ""<img src=\""/static/images/icons/Slide37.png\""></img>"", ""key_press"": null, ""test_part"": ""training"", ""next_elem"": ""Slide3"", ""trial_type"": ""html-keyboard-response"", ""trial_index"": 129, ""time_elapsed"": 217486, ""internal_node_id"": ""0.0-9.0-0.0-0.4"", ""uniqueId"": ""debugKJES3:debug3qbPN"", ""condition"": 0, ""counterbalance"": 0}"
debugKJES3:debug3qbPN,130,1.59518E+12,"{""rt"": null, ""stimulus"": ""<img src=\""/static/images/icons/Slide3.png\""></img>"", ""key_press"": null, ""test_part"": ""training"", ""next_elem"": ""Slide56"", ""trial_type"": ""html-keyboard-response"", ""trial_index"": 130, ""time_elapsed"": 218699, ""internal_node_id"": ""0.0-9.0-0.0-0.5"", ""uniqueId"": ""debugKJES3:debug3qbPN"", ""condition"": 0, ""counterbalance"": 0}"
debugKJES3:debug3qbPN,131,1.59518E+12,"{""rt"": null, ""stimulus"": ""<img src=\""/static/images/icons/Slide56.png\""></img>"", ""key_press"": null, ""test_part"": ""training"", ""next_elem"": ""Slide3"", ""trial_type"": ""html-keyboard-response"", ""trial_index"": 131, ""time_elapsed"": 219920, ""internal_node_id"": ""0.0-9.0-0.0-0.6"", ""uniqueId"": ""debugKJES3:debug3qbPN"", ""condition"": 0, ""counterbalance"": 0}"
debugKJES3:debug3qbPN,132,1.59518E+12,"{""rt"": null, ""stimulus"": ""<img src=\""/static/images/icons/Slide3.png\""></img>"", ""key_press"": null, ""test_part"": ""training"", ""next_elem"": ""Slide37"", ""trial_type"": ""html-keyboard-response"", ""trial_index"": 132, ""time_elapsed"": 221130, ""internal_node_id"": ""0.0-9.0-0.0-0.7"", ""uniqueId"": ""debugKJES3:debug3qbPN"", ""condition"": 0, ""counterbalance"": 0}"
debugKJES3:debug3qbPN,133,1.59518E+12,"{""rt"": null, ""stimulus"": ""<img src=\""/static/images/icons/Slide37.png\""></img>"", ""key_press"": null, ""test_part"": ""training"", ""next_elem"": ""Slide37"", ""trial_type"": ""html-keyboard-response"", ""trial_index"": 133, ""time_elapsed"": 222337, ""internal_node_id"": ""0.0-9.0-0.0-0.8"", ""uniqueId"": ""debugKJES3:debug3qbPN"", ""condition"": 0, ""counterbalance"": 0}"
debugKJES3:debug3qbPN,134,1.59518E+12,"{""rt"": null, ""stimulus"": ""<img src=\""/static/images/icons/Slide37.png\""></img>"", ""key_press"": null, ""test_part"": ""training"", ""next_elem"": ""Slide37"", ""trial_type"": ""html-keyboard-response"", ""trial_index"": 134, ""time_elapsed"": 223545, ""internal_node_id"": ""0.0-9.0-0.0-0.9"", ""uniqueId"": ""debugKJES3:debug3qbPN"", ""condition"": 0, ""counterbalance"": 0}"
debugKJES3:debug3qbPN,135,1.59518E+12,"{""rt"": null, ""stimulus"": ""<img src=\""/static/images/icons/Slide37.png\""></img>"", ""key_press"": null, ""test_part"": ""training"", ""next_elem"": ""Slide56"", ""trial_type"": ""html-keyboard-response"", ""trial_index"": 135, ""time_elapsed"": 224753, ""internal_node_id"": ""0.0-9.0-0.0-0.10"", ""uniqueId"": ""debugKJES3:debug3qbPN"", ""condition"": 0, ""counterbalance"": 0}"
debugKJES3:debug3qbPN,136,1.59518E+12,"{""rt"": null, ""stimulus"": ""<img src=\""/static/images/icons/Slide56.png\""></img>"", ""key_press"": null, ""test_part"": ""training"", ""next_elem"": ""Slide3"", ""trial_type"": ""html-keyboard-response"", ""trial_index"": 136, ""time_elapsed"": 225961, ""internal_node_id"": ""0.0-9.0-0.0-0.11"", ""uniqueId"": ""debugKJES3:debug3qbPN"", ""condition"": 0, ""counterbalance"": 0}"
debugKJES3:debug3qbPN,137,1.59518E+12,"{""rt"": null, ""stimulus"": ""<img src=\""/static/images/icons/Slide3.png\""></img>"", ""key_press"": null, ""test_part"": ""training"", ""next_elem"": ""Slide3"", ""trial_type"": ""html-keyboard-response"", ""trial_index"": 137, ""time_elapsed"": 227167, ""internal_node_id"": ""0.0-9.0-0.0-0.12"", ""uniqueId"": ""debugKJES3:debug3qbPN"", ""condition"": 0, ""counterbalance"": 0}"
debugKJES3:debug3qbPN,138,1.59518E+12,"{""rt"": null, ""stimulus"": ""<img src=\""/static/images/icons/Slide3.png\""></img>"", ""key_press"": null, ""test_part"": ""training"", ""next_elem"": ""Slide37"", ""trial_type"": ""html-keyboard-response"", ""trial_index"": 138, ""time_elapsed"": 228375, ""internal_node_id"": ""0.0-9.0-0.0-0.13"", ""uniqueId"": ""debugKJES3:debug3qbPN"", ""condition"": 0, ""counterbalance"": 0}"
debugKJES3:debug3qbPN,139,1.59518E+12,"{""rt"": null, ""stimulus"": ""<img src=\""/static/images/icons/Slide37.png\""></img>"", ""key_press"": null, ""test_part"": ""training"", ""next_elem"": ""Slide56"", ""trial_type"": ""html-keyboard-response"", ""trial_index"": 139, ""time_elapsed"": 229592, ""internal_node_id"": ""0.0-9.0-0.0-0.14"", ""uniqueId"": ""debugKJES3:debug3qbPN"", ""condition"": 0, ""counterbalance"": 0}"
debugKJES3:debug3qbPN,140,1.59518E+12,"{""rt"": null, ""stimulus"": ""<img src=\""/static/images/icons/Slide56.png\""></img>"", ""key_press"": null, ""test_part"": ""training"", ""next_elem"": ""Slide56"", ""trial_type"": ""html-keyboard-response"", ""trial_index"": 140, ""time_elapsed"": 230799, ""internal_node_id"": ""0.0-9.0-0.0-0.15"", ""uniqueId"": ""debugKJES3:debug3qbPN"", ""condition"": 0, ""counterbalance"": 0}"
debugKJES3:debug3qbPN,141,1.59518E+12,"{""rt"": null, ""stimulus"": ""<img src=\""/static/images/icons/Slide56.png\""></img>"", ""key_press"": null, ""test_part"": ""training"", ""next_elem"": ""Slide56"", ""trial_type"": ""html-keyboard-response"", ""trial_index"": 141, ""time_elapsed"": 232005, ""internal_node_id"": ""0.0-9.0-0.0-0.16"", ""uniqueId"": ""debugKJES3:debug3qbPN"", ""condition"": 0, ""counterbalance"": 0}"
debugKJES3:debug3qbPN,142,1.59518E+12,"{""rt"": null, ""stimulus"": ""<img src=\""/static/images/icons/Slide56.png\""></img>"", ""key_press"": null, ""test_part"": ""training"", ""next_elem"": ""Slide3"", ""trial_type"": ""html-keyboard-response"", ""trial_index"": 142, ""time_elapsed"": 233213, ""internal_node_id"": ""0.0-9.0-0.0-0.17"", ""uniqueId"": ""debugKJES3:debug3qbPN"", ""condition"": 0, ""counterbalance"": 0}"
debugKJES3:debug3qbPN,143,1.59518E+12,"{""rt"": null, ""stimulus"": ""<img src=\""/static/images/icons/Slide3.png\""></img>"", ""key_press"": null, ""test_part"": ""training"", ""next_elem"": ""Slide56"", ""trial_type"": ""html-keyboard-response"", ""trial_index"": 143, ""time_elapsed"": 234421, ""internal_node_id"": ""0.0-9.0-0.0-0.18"", ""uniqueId"": ""debugKJES3:debug3qbPN"", ""condition"": 0, ""counterbalance"": 0}"
debugKJES3:debug3qbPN,144,1.59518E+12,"{""rt"": null, ""stimulus"": ""<img src=\""/static/images/icons/Slide56.png\""></img>"", ""key_press"": null, ""test_part"": ""training"", ""next_elem"": ""Slide3"", ""trial_type"": ""html-keyboard-response"", ""trial_index"": 144, ""time_elapsed"": 235627, ""internal_node_id"": ""0.0-9.0-0.0-0.19"", ""uniqueId"": ""debugKJES3:debug3qbPN"", ""condition"": 0, ""counterbalance"": 0}"
debugKJES3:debug3qbPN,145,1.59518E+12,"{""rt"": null, ""stimulus"": ""<img src=\""/static/images/icons/Slide3.png\""></img>"", ""key_press"": null, ""test_part"": ""training"", ""next_elem"": ""Slide56"", ""trial_type"": ""html-keyboard-response"", ""trial_index"": 145, ""time_elapsed"": 236835, ""internal_node_id"": ""0.0-9.0-0.0-0.20"", ""uniqueId"": ""debugKJES3:debug3qbPN"", ""condition"": 0, ""counterbalance"": 0}"
debugKJES3:debug3qbPN,146,1.59518E+12,"{""rt"": null, ""stimulus"": ""<img src=\""/static/images/icons/Slide56.png\""></img>"", ""key_press"": null, ""test_part"": ""training"", ""next_elem"": ""Slide56"", ""trial_type"": ""html-keyboard-response"", ""trial_index"": 146, ""time_elapsed"": 238047, ""internal_node_id"": ""0.0-9.0-0.0-0.21"", ""uniqueId"": ""debugKJES3:debug3qbPN"", ""condition"": 0, ""counterbalance"": 0}"
debugKJES3:debug3qbPN,147,1.59518E+12,"{""rt"": null, ""stimulus"": ""<img src=\""/static/images/icons/Slide56.png\""></img>"", ""key_press"": null, ""test_part"": ""training"", ""next_elem"": ""Slide37"", ""trial_type"": ""html-keyboard-response"", ""trial_index"": 147, ""time_elapsed"": 239255, ""internal_node_id"": ""0.0-9.0-0.0-0.22"", ""uniqueId"": ""debugKJES3:debug3qbPN"", ""condition"": 0, ""counterbalance"": 0}"
debugKJES3:debug3qbPN,148,1.59518E+12,"{""rt"": null, ""stimulus"": ""<img src=\""/static/images/icons/Slide37.png\""></img>"", ""key_press"": null, ""test_part"": ""training"", ""next_elem"": ""Slide3"", ""trial_type"": ""html-keyboard-response"", ""trial_index"": 148, ""time_elapsed"": 240462, ""internal_node_id"": ""0.0-9.0-0.0-0.23"", ""uniqueId"": ""debugKJES3:debug3qbPN"", ""condition"": 0, ""counterbalance"": 0}"
debugKJES3:debug3qbPN,149,1.59518E+12,"{""rt"": null, ""stimulus"": ""<img src=\""/static/images/icons/Slide3.png\""></img>"", ""key_press"": null, ""test_part"": ""training"", ""next_elem"": ""Slide3"", ""trial_type"": ""html-keyboard-response"", ""trial_index"": 149, ""time_elapsed"": 241672, ""internal_node_id"": ""0.0-9.0-0.0-0.24"", ""uniqueId"": ""debugKJES3:debug3qbPN"", ""condition"": 0, ""counterbalance"": 0}"
debugKJES3:debug3qbPN,150,1.59518E+12,"{""rt"": null, ""stimulus"": ""<img src=\""/static/images/icons/Slide3.png\""></img>"", ""key_press"": null, ""test_part"": ""training"", ""next_elem"": ""Slide3"", ""trial_type"": ""html-keyboard-response"", ""trial_index"": 150, ""time_elapsed"": 242882, ""internal_node_id"": ""0.0-9.0-0.0-0.25"", ""uniqueId"": ""debugKJES3:debug3qbPN"", ""condition"": 0, ""counterbalance"": 0}"
debugKJES3:debug3qbPN,151,1.59518E+12,"{""rt"": null, ""stimulus"": ""<img src=\""/static/images/icons/Slide3.png\""></img>"", ""key_press"": null, ""test_part"": ""training"", ""next_elem"": ""Slide37"", ""trial_type"": ""html-keyboard-response"", ""trial_index"": 151, ""time_elapsed"": 244108, ""internal_node_id"": ""0.0-9.0-0.0-0.26"", ""uniqueId"": ""debugKJES3:debug3qbPN"", ""condition"": 0, ""counterbalance"": 0}"
debugKJES3:debug3qbPN,152,1.59518E+12,"{""rt"": null, ""stimulus"": ""<img src=\""/static/images/icons/Slide37.png\""></img>"", ""key_press"": null, ""test_part"": ""training"", ""next_elem"": ""Slide3"", ""trial_type"": ""html-keyboard-response"", ""trial_index"": 152, ""time_elapsed"": 245314, ""internal_node_id"": ""0.0-9.0-0.0-0.27"", ""uniqueId"": ""debugKJES3:debug3qbPN"", ""condition"": 0, ""counterbalance"": 0}"
debugKJES3:debug3qbPN,153,1.59518E+12,"{""rt"": null, ""stimulus"": ""<img src=\""/static/images/icons/Slide3.png\""></img>"", ""key_press"": null, ""test_part"": ""training"", ""next_elem"": ""Slide37"", ""trial_type"": ""html-keyboard-response"", ""trial_index"": 153, ""time_elapsed"": 246527, ""internal_node_id"": ""0.0-9.0-0.0-0.28"", ""uniqueId"": ""debugKJES3:debug3qbPN"", ""condition"": 0, ""counterbalance"": 0}"
debugKJES3:debug3qbPN,154,1.59518E+12,"{""rt"": null, ""stimulus"": ""Next sequence coming up.."", ""key_press"": null, ""test_part"": ""between_sequences"", ""trial_type"": ""html-keyboard-response"", ""trial_index"": 154, ""time_elapsed"": 250336, ""internal_node_id"": ""0.0-9.0-1.0"", ""uniqueId"": ""debugKJES3:debug3qbPN"", ""condition"": 0, ""counterbalance"": 0}"
debugKJES3:debug3qbPN,155,1.59518E+12,"{""rt"": null, ""stimulus"": ""<img src=\""/static/images/icons/Slide36.png\""></img>"", ""key_press"": null, ""test_part"": ""training"", ""next_elem"": ""Slide24"", ""trial_type"": ""html-keyboard-response"", ""trial_index"": 155, ""time_elapsed"": 251247, ""internal_node_id"": ""0.0-10.0-0.0-0.0"", ""uniqueId"": ""debugKJES3:debug3qbPN"", ""condition"": 0, ""counterbalance"": 0}"
debugKJES3:debug3qbPN,156,1.59518E+12,"{""rt"": null, ""stimulus"": ""<img src=\""/static/images/icons/Slide24.png\""></img>"", ""key_press"": null, ""test_part"": ""training"", ""next_elem"": ""Slide17"", ""trial_type"": ""html-keyboard-response"", ""trial_index"": 156, ""time_elapsed"": 252457, ""internal_node_id"": ""0.0-10.0-0.0-0.1"", ""uniqueId"": ""debugKJES3:debug3qbPN"", ""condition"": 0, ""counterbalance"": 0}"
debugKJES3:debug3qbPN,157,1.59518E+12,"{""rt"": null, ""stimulus"": ""<img src=\""/static/images/icons/Slide17.png\""></img>"", ""key_press"": null, ""test_part"": ""training"", ""next_elem"": ""Slide24"", ""trial_type"": ""html-keyboard-response"", ""trial_index"": 157, ""time_elapsed"": 253663, ""internal_node_id"": ""0.0-10.0-0.0-0.2"", ""uniqueId"": ""debugKJES3:debug3qbPN"", ""condition"": 0, ""counterbalance"": 0}"
debugKJES3:debug3qbPN,158,1.59518E+12,"{""rt"": null, ""stimulus"": ""<img src=\""/static/images/icons/Slide24.png\""></img>"", ""key_press"": null, ""test_part"": ""training"", ""next_elem"": ""Slide17"", ""trial_type"": ""html-keyboard-response"", ""trial_index"": 158, ""time_elapsed"": 254872, ""internal_node_id"": ""0.0-10.0-0.0-0.3"", ""uniqueId"": ""debugKJES3:debug3qbPN"", ""condition"": 0, ""counterbalance"": 0}"
debugKJES3:debug3qbPN,159,1.59518E+12,"{""rt"": null, ""stimulus"": ""<img src=\""/static/images/icons/Slide17.png\""></img>"", ""key_press"": null, ""test_part"": ""training"", ""next_elem"": ""Slide36"", ""trial_type"": ""html-keyboard-response"", ""trial_index"": 159, ""time_elapsed"": 256083, ""internal_node_id"": ""0.0-10.0-0.0-0.4"", ""uniqueId"": ""debugKJES3:debug3qbPN"", ""condition"": 0, ""counterbalance"": 0}"
debugKJES3:debug3qbPN,160,1.59518E+12,"{""rt"": null, ""stimulus"": ""<img src=\""/static/images/icons/Slide36.png\""></img>"", ""key_press"": null, ""test_part"": ""training"", ""next_elem"": ""Slide24"", ""trial_type"": ""html-keyboard-response"", ""trial_index"": 160, ""time_elapsed"": 257294, ""internal_node_id"": ""0.0-10.0-0.0-0.5"", ""uniqueId"": ""debugKJES3:debug3qbPN"", ""condition"": 0, ""counterbalance"": 0}"
debugKJES3:debug3qbPN,161,1.59518E+12,"{""rt"": null, ""stimulus"": ""<img src=\""/static/images/icons/Slide24.png\""></img>"", ""key_press"": null, ""test_part"": ""training"", ""next_elem"": ""Slide36"", ""trial_type"": ""html-keyboard-response"", ""trial_index"": 161, ""time_elapsed"": 258501, ""internal_node_id"": ""0.0-10.0-0.0-0.6"", ""uniqueId"": ""debugKJES3:debug3qbPN"", ""condition"": 0, ""counterbalance"": 0}"
debugKJES3:debug3qbPN,162,1.59518E+12,"{""rt"": null, ""stimulus"": ""<img src=\""/static/images/icons/Slide36.png\""></img>"", ""key_press"": null, ""test_part"": ""training"", ""next_elem"": ""Slide17"", ""trial_type"": ""html-keyboard-response"", ""trial_index"": 162, ""time_elapsed"": 259709, ""internal_node_id"": ""0.0-10.0-0.0-0.7"", ""uniqueId"": ""debugKJES3:debug3qbPN"", ""condition"": 0, ""counterbalance"": 0}"
debugKJES3:debug3qbPN,163,1.59518E+12,"{""rt"": null, ""stimulus"": ""<img src=\""/static/images/icons/Slide17.png\""></img>"", ""key_press"": null, ""test_part"": ""training"", ""next_elem"": ""Slide17"", ""trial_type"": ""html-keyboard-response"", ""trial_index"": 163, ""time_elapsed"": 260919, ""internal_node_id"": ""0.0-10.0-0.0-0.8"", ""uniqueId"": ""debugKJES3:debug3qbPN"", ""condition"": 0, ""counterbalance"": 0}"
debugKJES3:debug3qbPN,164,1.59518E+12,"{""rt"": null, ""stimulus"": ""<img src=\""/static/images/icons/Slide17.png\""></img>"", ""key_press"": null, ""test_part"": ""training"", ""next_elem"": ""Slide17"", ""trial_type"": ""html-keyboard-response"", ""trial_index"": 164, ""time_elapsed"": 262126, ""internal_node_id"": ""0.0-10.0-0.0-0.9"", ""uniqueId"": ""debugKJES3:debug3qbPN"", ""condition"": 0, ""counterbalance"": 0}"
debugKJES3:debug3qbPN,165,1.59518E+12,"{""rt"": null, ""stimulus"": ""<img src=\""/static/images/icons/Slide17.png\""></img>"", ""key_press"": null, ""test_part"": ""training"", ""next_elem"": ""Slide24"", ""trial_type"": ""html-keyboard-response"", ""trial_index"": 165, ""time_elapsed"": 263334, ""internal_node_id"": ""0.0-10.0-0.0-0.10"", ""uniqueId"": ""debugKJES3:debug3qbPN"", ""condition"": 0, ""counterbalance"": 0}"
debugKJES3:debug3qbPN,166,1.59518E+12,"{""rt"": null, ""stimulus"": ""<img src=\""/static/images/icons/Slide24.png\""></img>"", ""key_press"": null, ""test_part"": ""training"", ""next_elem"": ""Slide36"", ""trial_type"": ""html-keyboard-response"", ""trial_index"": 166, ""time_elapsed"": 264543, ""internal_node_id"": ""0.0-10.0-0.0-0.11"", ""uniqueId"": ""debugKJES3:debug3qbPN"", ""condition"": 0, ""counterbalance"": 0}"
debugKJES3:debug3qbPN,167,1.59518E+12,"{""rt"": null, ""stimulus"": ""<img src=\""/static/images/icons/Slide36.png\""></img>"", ""key_press"": null, ""test_part"": ""training"", ""next_elem"": ""Slide36"", ""trial_type"": ""html-keyboard-response"", ""trial_index"": 167, ""time_elapsed"": 265750, ""internal_node_id"": ""0.0-10.0-0.0-0.12"", ""uniqueId"": ""debugKJES3:debug3qbPN"", ""condition"": 0, ""counterbalance"": 0}"
debugKJES3:debug3qbPN,168,1.59518E+12,"{""rt"": null, ""stimulus"": ""<img src=\""/static/images/icons/Slide36.png\""></img>"", ""key_press"": null, ""test_part"": ""training"", ""next_elem"": ""Slide17"", ""trial_type"": ""html-keyboard-response"", ""trial_index"": 168, ""time_elapsed"": 266958, ""internal_node_id"": ""0.0-10.0-0.0-0.13"", ""uniqueId"": ""debugKJES3:debug3qbPN"", ""condition"": 0, ""counterbalance"": 0}"
debugKJES3:debug3qbPN,169,1.59518E+12,"{""rt"": null, ""stimulus"": ""<img src=\""/static/images/icons/Slide17.png\""></img>"", ""key_press"": null, ""test_part"": ""training"", ""next_elem"": ""Slide24"", ""trial_type"": ""html-keyboard-response"", ""trial_index"": 169, ""time_elapsed"": 268167, ""internal_node_id"": ""0.0-10.0-0.0-0.14"", ""uniqueId"": ""debugKJES3:debug3qbPN"", ""condition"": 0, ""counterbalance"": 0}"
debugKJES3:debug3qbPN,170,1.59518E+12,"{""rt"": null, ""stimulus"": ""<img src=\""/static/images/icons/Slide24.png\""></img>"", ""key_press"": null, ""test_part"": ""training"", ""next_elem"": ""Slide24"", ""trial_type"": ""html-keyboard-response"", ""trial_index"": 170, ""time_elapsed"": 269374, ""internal_node_id"": ""0.0-10.0-0.0-0.15"", ""uniqueId"": ""debugKJES3:debug3qbPN"", ""condition"": 0, ""counterbalance"": 0}"
debugKJES3:debug3qbPN,171,1.59518E+12,"{""rt"": null, ""stimulus"": ""<img src=\""/static/images/icons/Slide24.png\""></img>"", ""key_press"": null, ""test_part"": ""training"", ""next_elem"": ""Slide24"", ""trial_type"": ""html-keyboard-response"", ""trial_index"": 171, ""time_elapsed"": 270581, ""internal_node_id"": ""0.0-10.0-0.0-0.16"", ""uniqueId"": ""debugKJES3:debug3qbPN"", ""condition"": 0, ""counterbalance"": 0}"
debugKJES3:debug3qbPN,172,1.59518E+12,"{""rt"": null, ""stimulus"": ""<img src=\""/static/images/icons/Slide24.png\""></img>"", ""key_press"": null, ""test_part"": ""training"", ""next_elem"": ""Slide36"", ""trial_type"": ""html-keyboard-response"", ""trial_index"": 172, ""time_elapsed"": 271785, ""internal_node_id"": ""0.0-10.0-0.0-0.17"", ""uniqueId"": ""debugKJES3:debug3qbPN"", ""condition"": 0, ""counterbalance"": 0}"
debugKJES3:debug3qbPN,173,1.59518E+12,"{""rt"": null, ""stimulus"": ""<img src=\""/static/images/icons/Slide36.png\""></img>"", ""key_press"": null, ""test_part"": ""training"", ""next_elem"": ""Slide24"", ""trial_type"": ""html-keyboard-response"", ""trial_index"": 173, ""time_elapsed"": 272989, ""internal_node_id"": ""0.0-10.0-0.0-0.18"", ""uniqueId"": ""debugKJES3:debug3qbPN"", ""condition"": 0, ""counterbalance"": 0}"
debugKJES3:debug3qbPN,174,1.59518E+12,"{""rt"": null, ""stimulus"": ""<img src=\""/static/images/icons/Slide24.png\""></img>"", ""key_press"": null, ""test_part"": ""training"", ""next_elem"": ""Slide36"", ""trial_type"": ""html-keyboard-response"", ""trial_index"": 174, ""time_elapsed"": 274196, ""internal_node_id"": ""0.0-10.0-0.0-0.19"", ""uniqueId"": ""debugKJES3:debug3qbPN"", ""condition"": 0, ""counterbalance"": 0}"
debugKJES3:debug3qbPN,175,1.59518E+12,"{""rt"": null, ""stimulus"": ""<img src=\""/static/images/icons/Slide36.png\""></img>"", ""key_press"": null, ""test_part"": ""training"", ""next_elem"": ""Slide24"", ""trial_type"": ""html-keyboard-response"", ""trial_index"": 175, ""time_elapsed"": 275402, ""internal_node_id"": ""0.0-10.0-0.0-0.20"", ""uniqueId"": ""debugKJES3:debug3qbPN"", ""condition"": 0, ""counterbalance"": 0}"
debugKJES3:debug3qbPN,176,1.59518E+12,"{""rt"": null, ""stimulus"": ""<img src=\""/static/images/icons/Slide24.png\""></img>"", ""key_press"": null, ""test_part"": ""training"", ""next_elem"": ""Slide24"", ""trial_type"": ""html-keyboard-response"", ""trial_index"": 176, ""time_elapsed"": 276608, ""internal_node_id"": ""0.0-10.0-0.0-0.21"", ""uniqueId"": ""debugKJES3:debug3qbPN"", ""condition"": 0, ""counterbalance"": 0}"
debugKJES3:debug3qbPN,177,1.59518E+12,"{""rt"": null, ""stimulus"": ""<img src=\""/static/images/icons/Slide24.png\""></img>"", ""key_press"": null, ""test_part"": ""training"", ""next_elem"": ""Slide17"", ""trial_type"": ""html-keyboard-response"", ""trial_index"": 177, ""time_elapsed"": 277819, ""internal_node_id"": ""0.0-10.0-0.0-0.22"", ""uniqueId"": ""debugKJES3:debug3qbPN"", ""condition"": 0, ""counterbalance"": 0}"
debugKJES3:debug3qbPN,178,1.59518E+12,"{""rt"": null, ""stimulus"": ""<img src=\""/static/images/icons/Slide17.png\""></img>"", ""key_press"": null, ""test_part"": ""training"", ""next_elem"": ""Slide36"", ""trial_type"": ""html-keyboard-response"", ""trial_index"": 178, ""time_elapsed"": 279028, ""internal_node_id"": ""0.0-10.0-0.0-0.23"", ""uniqueId"": ""debugKJES3:debug3qbPN"", ""condition"": 0, ""counterbalance"": 0}"
debugKJES3:debug3qbPN,179,1.59518E+12,"{""rt"": null, ""stimulus"": ""<img src=\""/static/images/icons/Slide36.png\""></img>"", ""key_press"": null, ""test_part"": ""training"", ""next_elem"": ""Slide36"", ""trial_type"": ""html-keyboard-response"", ""trial_index"": 179, ""time_elapsed"": 280233, ""internal_node_id"": ""0.0-10.0-0.0-0.24"", ""uniqueId"": ""debugKJES3:debug3qbPN"", ""condition"": 0, ""counterbalance"": 0}"
debugKJES3:debug3qbPN,180,1.59518E+12,"{""rt"": null, ""stimulus"": ""<img src=\""/static/images/icons/Slide36.png\""></img>"", ""key_press"": null, ""test_part"": ""training"", ""next_elem"": ""Slide36"", ""trial_type"": ""html-keyboard-response"", ""trial_index"": 180, ""time_elapsed"": 281444, ""internal_node_id"": ""0.0-10.0-0.0-0.25"", ""uniqueId"": ""debugKJES3:debug3qbPN"", ""condition"": 0, ""counterbalance"": 0}"
debugKJES3:debug3qbPN,181,1.59518E+12,"{""rt"": null, ""stimulus"": ""<img src=\""/static/images/icons/Slide36.png\""></img>"", ""key_press"": null, ""test_part"": ""training"", ""next_elem"": ""Slide17"", ""trial_type"": ""html-keyboard-response"", ""trial_index"": 181, ""time_elapsed"": 282655, ""internal_node_id"": ""0.0-10.0-0.0-0.26"", ""uniqueId"": ""debugKJES3:debug3qbPN"", ""condition"": 0, ""counterbalance"": 0}"
debugKJES3:debug3qbPN,182,1.59518E+12,"{""rt"": null, ""stimulus"": ""<img src=\""/static/images/icons/Slide17.png\""></img>"", ""key_press"": null, ""test_part"": ""training"", ""next_elem"": ""Slide36"", ""trial_type"": ""html-keyboard-response"", ""trial_index"": 182, ""time_elapsed"": 283862, ""internal_node_id"": ""0.0-10.0-0.0-0.27"", ""uniqueId"": ""debugKJES3:debug3qbPN"", ""condition"": 0, ""counterbalance"": 0}"
debugKJES3:debug3qbPN,183,1.59518E+12,"{""rt"": null, ""stimulus"": ""<img src=\""/static/images/icons/Slide36.png\""></img>"", ""key_press"": null, ""test_part"": ""training"", ""next_elem"": ""Slide17"", ""trial_type"": ""html-keyboard-response"", ""trial_index"": 183, ""time_elapsed"": 285080, ""internal_node_id"": ""0.0-10.0-0.0-0.28"", ""uniqueId"": ""debugKJES3:debug3qbPN"", ""condition"": 0, ""counterbalance"": 0}"
debugKJES3:debug3qbPN,184,1.59518E+12,"{""rt"": null, ""stimulus"": ""Next sequence coming up.."", ""key_press"": null, ""test_part"": ""between_sequences"", ""trial_type"": ""html-keyboard-response"", ""trial_index"": 184, ""time_elapsed"": 288889, ""internal_node_id"": ""0.0-10.0-1.0"", ""uniqueId"": ""debugKJES3:debug3qbPN"", ""condition"": 0, ""counterbalance"": 0}"
debugKJES3:debug3qbPN,185,1.59518E+12,"{""rt"": null, ""stimulus"": ""<img src=\""/static/images/icons/Slide43.png\""></img>"", ""key_press"": null, ""test_part"": ""training"", ""next_elem"": ""Slide2"", ""trial_type"": ""html-keyboard-response"", ""trial_index"": 185, ""time_elapsed"": 289802, ""internal_node_id"": ""0.0-11.0-0.0-0.0"", ""uniqueId"": ""debugKJES3:debug3qbPN"", ""condition"": 0, ""counterbalance"": 0}"
debugKJES3:debug3qbPN,186,1.59518E+12,"{""rt"": null, ""stimulus"": ""<img src=\""/static/images/icons/Slide2.png\""></img>"", ""key_press"": null, ""test_part"": ""training"", ""next_elem"": ""Slide22"", ""trial_type"": ""html-keyboard-response"", ""trial_index"": 186, ""time_elapsed"": 291013, ""internal_node_id"": ""0.0-11.0-0.0-0.1"", ""uniqueId"": ""debugKJES3:debug3qbPN"", ""condition"": 0, ""counterbalance"": 0}"
debugKJES3:debug3qbPN,187,1.59518E+12,"{""rt"": null, ""stimulus"": ""<img src=\""/static/images/icons/Slide22.png\""></img>"", ""key_press"": null, ""test_part"": ""training"", ""next_elem"": ""Slide2"", ""trial_type"": ""html-keyboard-response"", ""trial_index"": 187, ""time_elapsed"": 292224, ""internal_node_id"": ""0.0-11.0-0.0-0.2"", ""uniqueId"": ""debugKJES3:debug3qbPN"", ""condition"": 0, ""counterbalance"": 0}"
debugKJES3:debug3qbPN,188,1.59518E+12,"{""rt"": null, ""stimulus"": ""<img src=\""/static/images/icons/Slide2.png\""></img>"", ""key_press"": null, ""test_part"": ""training"", ""next_elem"": ""Slide22"", ""trial_type"": ""html-keyboard-response"", ""trial_index"": 188, ""time_elapsed"": 293433, ""internal_node_id"": ""0.0-11.0-0.0-0.3"", ""uniqueId"": ""debugKJES3:debug3qbPN"", ""condition"": 0, ""counterbalance"": 0}"
debugKJES3:debug3qbPN,189,1.59518E+12,"{""rt"": null, ""stimulus"": ""<img src=\""/static/images/icons/Slide22.png\""></img>"", ""key_press"": null, ""test_part"": ""training"", ""next_elem"": ""Slide43"", ""trial_type"": ""html-keyboard-response"", ""trial_index"": 189, ""time_elapsed"": 294639, ""internal_node_id"": ""0.0-11.0-0.0-0.4"", ""uniqueId"": ""debugKJES3:debug3qbPN"", ""condition"": 0, ""counterbalance"": 0}"
debugKJES3:debug3qbPN,190,1.59518E+12,"{""rt"": null, ""stimulus"": ""<img src=\""/static/images/icons/Slide43.png\""></img>"", ""key_press"": null, ""test_part"": ""training"", ""next_elem"": ""Slide2"", ""trial_type"": ""html-keyboard-response"", ""trial_index"": 190, ""time_elapsed"": 295849, ""internal_node_id"": ""0.0-11.0-0.0-0.5"", ""uniqueId"": ""debugKJES3:debug3qbPN"", ""condition"": 0, ""counterbalance"": 0}"
debugKJES3:debug3qbPN,191,1.59518E+12,"{""rt"": null, ""stimulus"": ""<img src=\""/static/images/icons/Slide2.png\""></img>"", ""key_press"": null, ""test_part"": ""training"", ""next_elem"": ""Slide43"", ""trial_type"": ""html-keyboard-response"", ""trial_index"": 191, ""time_elapsed"": 297057, ""internal_node_id"": ""0.0-11.0-0.0-0.6"", ""uniqueId"": ""debugKJES3:debug3qbPN"", ""condition"": 0, ""counterbalance"": 0}"
debugKJES3:debug3qbPN,192,1.59518E+12,"{""rt"": null, ""stimulus"": ""<img src=\""/static/images/icons/Slide43.png\""></img>"", ""key_press"": null, ""test_part"": ""training"", ""next_elem"": ""Slide22"", ""trial_type"": ""html-keyboard-response"", ""trial_index"": 192, ""time_elapsed"": 298268, ""internal_node_id"": ""0.0-11.0-0.0-0.7"", ""uniqueId"": ""debugKJES3:debug3qbPN"", ""condition"": 0, ""counterbalance"": 0}"
debugKJES3:debug3qbPN,193,1.59518E+12,"{""rt"": null, ""stimulus"": ""<img src=\""/static/images/icons/Slide22.png\""></img>"", ""key_press"": null, ""test_part"": ""training"", ""next_elem"": ""Slide22"", ""trial_type"": ""html-keyboard-response"", ""trial_index"": 193, ""time_elapsed"": 299475, ""internal_node_id"": ""0.0-11.0-0.0-0.8"", ""uniqueId"": ""debugKJES3:debug3qbPN"", ""condition"": 0, ""counterbalance"": 0}"
debugKJES3:debug3qbPN,194,1.59518E+12,"{""rt"": null, ""stimulus"": ""<img src=\""/static/images/icons/Slide22.png\""></img>"", ""key_press"": null, ""test_part"": ""training"", ""next_elem"": ""Slide22"", ""trial_type"": ""html-keyboard-response"", ""trial_index"": 194, ""time_elapsed"": 300681, ""internal_node_id"": ""0.0-11.0-0.0-0.9"", ""uniqueId"": ""debugKJES3:debug3qbPN"", ""condition"": 0, ""counterbalance"": 0}"
debugKJES3:debug3qbPN,195,1.59518E+12,"{""rt"": null, ""stimulus"": ""<img src=\""/static/images/icons/Slide22.png\""></img>"", ""key_press"": null, ""test_part"": ""training"", ""next_elem"": ""Slide2"", ""trial_type"": ""html-keyboard-response"", ""trial_index"": 195, ""time_elapsed"": 301889, ""internal_node_id"": ""0.0-11.0-0.0-0.10"", ""uniqueId"": ""debugKJES3:debug3qbPN"", ""condition"": 0, ""counterbalance"": 0}"
debugKJES3:debug3qbPN,196,1.59518E+12,"{""rt"": null, ""stimulus"": ""<img src=\""/static/images/icons/Slide2.png\""></img>"", ""key_press"": null, ""test_part"": ""training"", ""next_elem"": ""Slide43"", ""trial_type"": ""html-keyboard-response"", ""trial_index"": 196, ""time_elapsed"": 303096, ""internal_node_id"": ""0.0-11.0-0.0-0.11"", ""uniqueId"": ""debugKJES3:debug3qbPN"", ""condition"": 0, ""counterbalance"": 0}"
debugKJES3:debug3qbPN,197,1.59518E+12,"{""rt"": null, ""stimulus"": ""<img src=\""/static/images/icons/Slide43.png\""></img>"", ""key_press"": null, ""test_part"": ""training"", ""next_elem"": ""Slide43"", ""trial_type"": ""html-keyboard-response"", ""trial_index"": 197, ""time_elapsed"": 304305, ""internal_node_id"": ""0.0-11.0-0.0-0.12"", ""uniqueId"": ""debugKJES3:debug3qbPN"", ""condition"": 0, ""counterbalance"": 0}"
debugKJES3:debug3qbPN,198,1.59518E+12,"{""rt"": null, ""stimulus"": ""<img src=\""/static/images/icons/Slide43.png\""></img>"", ""key_press"": null, ""test_part"": ""training"", ""next_elem"": ""Slide22"", ""trial_type"": ""html-keyboard-response"", ""trial_index"": 198, ""time_elapsed"": 305514, ""internal_node_id"": ""0.0-11.0-0.0-0.13"", ""uniqueId"": ""debugKJES3:debug3qbPN"", ""condition"": 0, ""counterbalance"": 0}"
debugKJES3:debug3qbPN,199,1.59518E+12,"{""rt"": null, ""stimulus"": ""<img src=\""/static/images/icons/Slide22.png\""></img>"", ""key_press"": null, ""test_part"": ""training"", ""next_elem"": ""Slide2"", ""trial_type"": ""html-keyboard-response"", ""trial_index"": 199, ""time_elapsed"": 306722, ""internal_node_id"": ""0.0-11.0-0.0-0.14"", ""uniqueId"": ""debugKJES3:debug3qbPN"", ""condition"": 0, ""counterbalance"": 0}"
debugKJES3:debug3qbPN,200,1.59518E+12,"{""rt"": null, ""stimulus"": ""<img src=\""/static/images/icons/Slide2.png\""></img>"", ""key_press"": null, ""test_part"": ""training"", ""next_elem"": ""Slide2"", ""trial_type"": ""html-keyboard-response"", ""trial_index"": 200, ""time_elapsed"": 307931, ""internal_node_id"": ""0.0-11.0-0.0-0.15"", ""uniqueId"": ""debugKJES3:debug3qbPN"", ""condition"": 0, ""counterbalance"": 0}"
debugKJES3:debug3qbPN,201,1.59518E+12,"{""rt"": null, ""stimulus"": ""<img src=\""/static/images/icons/Slide2.png\""></img>"", ""key_press"": null, ""test_part"": ""training"", ""next_elem"": ""Slide2"", ""trial_type"": ""html-keyboard-response"", ""trial_index"": 201, ""time_elapsed"": 309138, ""internal_node_id"": ""0.0-11.0-0.0-0.16"", ""uniqueId"": ""debugKJES3:debug3qbPN"", ""condition"": 0, ""counterbalance"": 0}"
debugKJES3:debug3qbPN,202,1.59518E+12,"{""rt"": null, ""stimulus"": ""<img src=\""/static/images/icons/Slide2.png\""></img>"", ""key_press"": null, ""test_part"": ""training"", ""next_elem"": ""Slide43"", ""trial_type"": ""html-keyboard-response"", ""trial_index"": 202, ""time_elapsed"": 310346, ""internal_node_id"": ""0.0-11.0-0.0-0.17"", ""uniqueId"": ""debugKJES3:debug3qbPN"", ""condition"": 0, ""counterbalance"": 0}"
debugKJES3:debug3qbPN,203,1.59518E+12,"{""rt"": null, ""stimulus"": ""<img src=\""/static/images/icons/Slide43.png\""></img>"", ""key_press"": null, ""test_part"": ""training"", ""next_elem"": ""Slide2"", ""trial_type"": ""html-keyboard-response"", ""trial_index"": 203, ""time_elapsed"": 311554, ""internal_node_id"": ""0.0-11.0-0.0-0.18"", ""uniqueId"": ""debugKJES3:debug3qbPN"", ""condition"": 0, ""counterbalance"": 0}"
debugKJES3:debug3qbPN,204,1.59518E+12,"{""rt"": null, ""stimulus"": ""<img src=\""/static/images/icons/Slide2.png\""></img>"", ""key_press"": null, ""test_part"": ""training"", ""next_elem"": ""Slide43"", ""trial_type"": ""html-keyboard-response"", ""trial_index"": 204, ""time_elapsed"": 312763, ""internal_node_id"": ""0.0-11.0-0.0-0.19"", ""uniqueId"": ""debugKJES3:debug3qbPN"", ""condition"": 0, ""counterbalance"": 0}"
debugKJES3:debug3qbPN,205,1.59518E+12,"{""rt"": null, ""stimulus"": ""<img src=\""/static/images/icons/Slide43.png\""></img>"", ""key_press"": null, ""test_part"": ""training"", ""next_elem"": ""Slide2"", ""trial_type"": ""html-keyboard-response"", ""trial_index"": 205, ""time_elapsed"": 313972, ""internal_node_id"": ""0.0-11.0-0.0-0.20"", ""uniqueId"": ""debugKJES3:debug3qbPN"", ""condition"": 0, ""counterbalance"": 0}"
debugKJES3:debug3qbPN,206,1.59518E+12,"{""rt"": null, ""stimulus"": ""<img src=\""/static/images/icons/Slide2.png\""></img>"", ""key_press"": null, ""test_part"": ""training"", ""next_elem"": ""Slide2"", ""trial_type"": ""html-keyboard-response"", ""trial_index"": 206, ""time_elapsed"": 315182, ""internal_node_id"": ""0.0-11.0-0.0-0.21"", ""uniqueId"": ""debugKJES3:debug3qbPN"", ""condition"": 0, ""counterbalance"": 0}"
debugKJES3:debug3qbPN,207,1.59518E+12,"{""rt"": null, ""stimulus"": ""<img src=\""/static/images/icons/Slide2.png\""></img>"", ""key_press"": null, ""test_part"": ""training"", ""next_elem"": ""Slide22"", ""trial_type"": ""html-keyboard-response"", ""trial_index"": 207, ""time_elapsed"": 316394, ""internal_node_id"": ""0.0-11.0-0.0-0.22"", ""uniqueId"": ""debugKJES3:debug3qbPN"", ""condition"": 0, ""counterbalance"": 0}"
debugKJES3:debug3qbPN,208,1.59518E+12,"{""rt"": null, ""stimulus"": ""<img src=\""/static/images/icons/Slide22.png\""></img>"", ""key_press"": null, ""test_part"": ""training"", ""next_elem"": ""Slide43"", ""trial_type"": ""html-keyboard-response"", ""trial_index"": 208, ""time_elapsed"": 317605, ""internal_node_id"": ""0.0-11.0-0.0-0.23"", ""uniqueId"": ""debugKJES3:debug3qbPN"", ""condition"": 0, ""counterbalance"": 0}"
debugKJES3:debug3qbPN,209,1.59518E+12,"{""rt"": null, ""stimulus"": ""<img src=\""/static/images/icons/Slide43.png\""></img>"", ""key_press"": null, ""test_part"": ""training"", ""next_elem"": ""Slide43"", ""trial_type"": ""html-keyboard-response"", ""trial_index"": 209, ""time_elapsed"": 318812, ""internal_node_id"": ""0.0-11.0-0.0-0.24"", ""uniqueId"": ""debugKJES3:debug3qbPN"", ""condition"": 0, ""counterbalance"": 0}"
debugKJES3:debug3qbPN,210,1.59518E+12,"{""rt"": null, ""stimulus"": ""<img src=\""/static/images/icons/Slide43.png\""></img>"", ""key_press"": null, ""test_part"": ""training"", ""next_elem"": ""Slide43"", ""trial_type"": ""html-keyboard-response"", ""trial_index"": 210, ""time_elapsed"": 320022, ""internal_node_id"": ""0.0-11.0-0.0-0.25"", ""uniqueId"": ""debugKJES3:debug3qbPN"", ""condition"": 0, ""counterbalance"": 0}"
debugKJES3:debug3qbPN,211,1.59518E+12,"{""rt"": null, ""stimulus"": ""<img src=\""/static/images/icons/Slide43.png\""></img>"", ""key_press"": null, ""test_part"": ""training"", ""next_elem"": ""Slide22"", ""trial_type"": ""html-keyboard-response"", ""trial_index"": 211, ""time_elapsed"": 321236, ""internal_node_id"": ""0.0-11.0-0.0-0.26"", ""uniqueId"": ""debugKJES3:debug3qbPN"", ""condition"": 0, ""counterbalance"": 0}"
debugKJES3:debug3qbPN,212,1.59518E+12,"{""rt"": null, ""stimulus"": ""<img src=\""/static/images/icons/Slide22.png\""></img>"", ""key_press"": null, ""test_part"": ""training"", ""next_elem"": ""Slide43"", ""trial_type"": ""html-keyboard-response"", ""trial_index"": 212, ""time_elapsed"": 322443, ""internal_node_id"": ""0.0-11.0-0.0-0.27"", ""uniqueId"": ""debugKJES3:debug3qbPN"", ""condition"": 0, ""counterbalance"": 0}"
debugKJES3:debug3qbPN,213,1.59518E+12,"{""rt"": null, ""stimulus"": ""<img src=\""/static/images/icons/Slide43.png\""></img>"", ""key_press"": null, ""test_part"": ""training"", ""next_elem"": ""Slide22"", ""trial_type"": ""html-keyboard-response"", ""trial_index"": 213, ""time_elapsed"": 323650, ""internal_node_id"": ""0.0-11.0-0.0-0.28"", ""uniqueId"": ""debugKJES3:debug3qbPN"", ""condition"": 0, ""counterbalance"": 0}"
debugKJES3:debug3qbPN,214,1.59518E+12,"{""rt"": null, ""stimulus"": ""Next sequence coming up.."", ""key_press"": null, ""test_part"": ""between_sequences"", ""trial_type"": ""html-keyboard-response"", ""trial_index"": 214, ""time_elapsed"": 327460, ""internal_node_id"": ""0.0-11.0-1.0"", ""uniqueId"": ""debugKJES3:debug3qbPN"", ""condition"": 0, ""counterbalance"": 0}"
debugKJES3:debug3qbPN,215,1.59518E+12,"{""rt"": null, ""stimulus"": ""<img src=\""/static/images/icons/Slide10.png\""></img>"", ""key_press"": null, ""test_part"": ""training"", ""next_elem"": ""Slide18"", ""trial_type"": ""html-keyboard-response"", ""trial_index"": 215, ""time_elapsed"": 328370, ""internal_node_id"": ""0.0-12.0-0.0-0.0"", ""uniqueId"": ""debugKJES3:debug3qbPN"", ""condition"": 0, ""counterbalance"": 0}"
debugKJES3:debug3qbPN,216,1.59518E+12,"{""rt"": null, ""stimulus"": ""<img src=\""/static/images/icons/Slide18.png\""></img>"", ""key_press"": null, ""test_part"": ""training"", ""next_elem"": ""Slide12"", ""trial_type"": ""html-keyboard-response"", ""trial_index"": 216, ""time_elapsed"": 329576, ""internal_node_id"": ""0.0-12.0-0.0-0.1"", ""uniqueId"": ""debugKJES3:debug3qbPN"", ""condition"": 0, ""counterbalance"": 0}"
debugKJES3:debug3qbPN,217,1.59518E+12,"{""rt"": null, ""stimulus"": ""<img src=\""/static/images/icons/Slide12.png\""></img>"", ""key_press"": null, ""test_part"": ""training"", ""next_elem"": ""Slide18"", ""trial_type"": ""html-keyboard-response"", ""trial_index"": 217, ""time_elapsed"": 330786, ""internal_node_id"": ""0.0-12.0-0.0-0.2"", ""uniqueId"": ""debugKJES3:debug3qbPN"", ""condition"": 0, ""counterbalance"": 0}"
debugKJES3:debug3qbPN,218,1.59518E+12,"{""rt"": null, ""stimulus"": ""<img src=\""/static/images/icons/Slide18.png\""></img>"", ""key_press"": null, ""test_part"": ""training"", ""next_elem"": ""Slide12"", ""trial_type"": ""html-keyboard-response"", ""trial_index"": 218, ""time_elapsed"": 331992, ""internal_node_id"": ""0.0-12.0-0.0-0.3"", ""uniqueId"": ""debugKJES3:debug3qbPN"", ""condition"": 0, ""counterbalance"": 0}"
debugKJES3:debug3qbPN,219,1.59518E+12,"{""rt"": null, ""stimulus"": ""<img src=\""/static/images/icons/Slide12.png\""></img>"", ""key_press"": null, ""test_part"": ""training"", ""next_elem"": ""Slide10"", ""trial_type"": ""html-keyboard-response"", ""trial_index"": 219, ""time_elapsed"": 333200, ""internal_node_id"": ""0.0-12.0-0.0-0.4"", ""uniqueId"": ""debugKJES3:debug3qbPN"", ""condition"": 0, ""counterbalance"": 0}"
debugKJES3:debug3qbPN,220,1.59518E+12,"{""rt"": null, ""stimulus"": ""<img src=\""/static/images/icons/Slide10.png\""></img>"", ""key_press"": null, ""test_part"": ""training"", ""next_elem"": ""Slide18"", ""trial_type"": ""html-keyboard-response"", ""trial_index"": 220, ""time_elapsed"": 334407, ""internal_node_id"": ""0.0-12.0-0.0-0.5"", ""uniqueId"": ""debugKJES3:debug3qbPN"", ""condition"": 0, ""counterbalance"": 0}"
debugKJES3:debug3qbPN,221,1.59518E+12,"{""rt"": null, ""stimulus"": ""<img src=\""/static/images/icons/Slide18.png\""></img>"", ""key_press"": null, ""test_part"": ""training"", ""next_elem"": ""Slide10"", ""trial_type"": ""html-keyboard-response"", ""trial_index"": 221, ""time_elapsed"": 335615, ""internal_node_id"": ""0.0-12.0-0.0-0.6"", ""uniqueId"": ""debugKJES3:debug3qbPN"", ""condition"": 0, ""counterbalance"": 0}"
debugKJES3:debug3qbPN,222,1.59518E+12,"{""rt"": null, ""stimulus"": ""<img src=\""/static/images/icons/Slide10.png\""></img>"", ""key_press"": null, ""test_part"": ""training"", ""next_elem"": ""Slide12"", ""trial_type"": ""html-keyboard-response"", ""trial_index"": 222, ""time_elapsed"": 336824, ""internal_node_id"": ""0.0-12.0-0.0-0.7"", ""uniqueId"": ""debugKJES3:debug3qbPN"", ""condition"": 0, ""counterbalance"": 0}"
debugKJES3:debug3qbPN,223,1.59518E+12,"{""rt"": null, ""stimulus"": ""<img src=\""/static/images/icons/Slide12.png\""></img>"", ""key_press"": null, ""test_part"": ""training"", ""next_elem"": ""Slide12"", ""trial_type"": ""html-keyboard-response"", ""trial_index"": 223, ""time_elapsed"": 338033, ""internal_node_id"": ""0.0-12.0-0.0-0.8"", ""uniqueId"": ""debugKJES3:debug3qbPN"", ""condition"": 0, ""counterbalance"": 0}"
debugKJES3:debug3qbPN,224,1.59518E+12,"{""rt"": null, ""stimulus"": ""<img src=\""/static/images/icons/Slide12.png\""></img>"", ""key_press"": null, ""test_part"": ""training"", ""next_elem"": ""Slide12"", ""trial_type"": ""html-keyboard-response"", ""trial_index"": 224, ""time_elapsed"": 339248, ""internal_node_id"": ""0.0-12.0-0.0-0.9"", ""uniqueId"": ""debugKJES3:debug3qbPN"", ""condition"": 0, ""counterbalance"": 0}"
debugKJES3:debug3qbPN,225,1.59518E+12,"{""rt"": null, ""stimulus"": ""<img src=\""/static/images/icons/Slide12.png\""></img>"", ""key_press"": null, ""test_part"": ""training"", ""next_elem"": ""Slide18"", ""trial_type"": ""html-keyboard-response"", ""trial_index"": 225, ""time_elapsed"": 340456, ""internal_node_id"": ""0.0-12.0-0.0-0.10"", ""uniqueId"": ""debugKJES3:debug3qbPN"", ""condition"": 0, ""counterbalance"": 0}"
debugKJES3:debug3qbPN,226,1.59518E+12,"{""rt"": null, ""stimulus"": ""<img src=\""/static/images/icons/Slide18.png\""></img>"", ""key_press"": null, ""test_part"": ""training"", ""next_elem"": ""Slide10"", ""trial_type"": ""html-keyboard-response"", ""trial_index"": 226, ""time_elapsed"": 341664, ""internal_node_id"": ""0.0-12.0-0.0-0.11"", ""uniqueId"": ""debugKJES3:debug3qbPN"", ""condition"": 0, ""counterbalance"": 0}"
debugKJES3:debug3qbPN,227,1.59518E+12,"{""rt"": null, ""stimulus"": ""<img src=\""/static/images/icons/Slide10.png\""></img>"", ""key_press"": null, ""test_part"": ""training"", ""next_elem"": ""Slide10"", ""trial_type"": ""html-keyboard-response"", ""trial_index"": 227, ""time_elapsed"": 342876, ""internal_node_id"": ""0.0-12.0-0.0-0.12"", ""uniqueId"": ""debugKJES3:debug3qbPN"", ""condition"": 0, ""counterbalance"": 0}"
debugKJES3:debug3qbPN,228,1.59518E+12,"{""rt"": null, ""stimulus"": ""<img src=\""/static/images/icons/Slide10.png\""></img>"", ""key_press"": null, ""test_part"": ""training"", ""next_elem"": ""Slide12"", ""trial_type"": ""html-keyboard-response"", ""trial_index"": 228, ""time_elapsed"": 344083, ""internal_node_id"": ""0.0-12.0-0.0-0.13"", ""uniqueId"": ""debugKJES3:debug3qbPN"", ""condition"": 0, ""counterbalance"": 0}"
debugKJES3:debug3qbPN,229,1.59518E+12,"{""rt"": null, ""stimulus"": ""<img src=\""/static/images/icons/Slide12.png\""></img>"", ""key_press"": null, ""test_part"": ""training"", ""next_elem"": ""Slide18"", ""trial_type"": ""html-keyboard-response"", ""trial_index"": 229, ""time_elapsed"": 345293, ""internal_node_id"": ""0.0-12.0-0.0-0.14"", ""uniqueId"": ""debugKJES3:debug3qbPN"", ""condition"": 0, ""counterbalance"": 0}"
debugKJES3:debug3qbPN,230,1.59518E+12,"{""rt"": null, ""stimulus"": ""<img src=\""/static/images/icons/Slide18.png\""></img>"", ""key_press"": null, ""test_part"": ""training"", ""next_elem"": ""Slide18"", ""trial_type"": ""html-keyboard-response"", ""trial_index"": 230, ""time_elapsed"": 346500, ""internal_node_id"": ""0.0-12.0-0.0-0.15"", ""uniqueId"": ""debugKJES3:debug3qbPN"", ""condition"": 0, ""counterbalance"": 0}"
debugKJES3:debug3qbPN,231,1.59518E+12,"{""rt"": null, ""stimulus"": ""<img src=\""/static/images/icons/Slide18.png\""></img>"", ""key_press"": null, ""test_part"": ""training"", ""next_elem"": ""Slide18"", ""trial_type"": ""html-keyboard-response"", ""trial_index"": 231, ""time_elapsed"": 347708, ""internal_node_id"": ""0.0-12.0-0.0-0.16"", ""uniqueId"": ""debugKJES3:debug3qbPN"", ""condition"": 0, ""counterbalance"": 0}"
debugKJES3:debug3qbPN,232,1.59518E+12,"{""rt"": null, ""stimulus"": ""<img src=\""/static/images/icons/Slide18.png\""></img>"", ""key_press"": null, ""test_part"": ""training"", ""next_elem"": ""Slide10"", ""trial_type"": ""html-keyboard-response"", ""trial_index"": 232, ""time_elapsed"": 348917, ""internal_node_id"": ""0.0-12.0-0.0-0.17"", ""uniqueId"": ""debugKJES3:debug3qbPN"", ""condition"": 0, ""counterbalance"": 0}"
debugKJES3:debug3qbPN,233,1.59518E+12,"{""rt"": null, ""stimulus"": ""<img src=\""/static/images/icons/Slide10.png\""></img>"", ""key_press"": null, ""test_part"": ""training"", ""next_elem"": ""Slide18"", ""trial_type"": ""html-keyboard-response"", ""trial_index"": 233, ""time_elapsed"": 350126, ""internal_node_id"": ""0.0-12.0-0.0-0.18"", ""uniqueId"": ""debugKJES3:debug3qbPN"", ""condition"": 0, ""counterbalance"": 0}"
debugKJES3:debug3qbPN,234,1.59518E+12,"{""rt"": null, ""stimulus"": ""<img src=\""/static/images/icons/Slide18.png\""></img>"", ""key_press"": null, ""test_part"": ""training"", ""next_elem"": ""Slide10"", ""trial_type"": ""html-keyboard-response"", ""trial_index"": 234, ""time_elapsed"": 351335, ""internal_node_id"": ""0.0-12.0-0.0-0.19"", ""uniqueId"": ""debugKJES3:debug3qbPN"", ""condition"": 0, ""counterbalance"": 0}"
