A2DIZAZV0B2WI0:30MVJZJNHNDZS95N4GB02617TAA9J5,0,1579893337016,"{""rt"": 1860.5850000167266, ""stimulus"": ""<p>This session will last for 15min.</p><p> In each trial, you will see some symbols appearing one-by-one. </p><p> You will be asked to stop the sequence whenever you can answer some questions (more on this later). </p><p> Each sequence is independent from one another. </p><p> <br /> Let us practice before we move on to the actual experiment: </p>"", ""button_pressed"": ""0"", ""trial_type"": ""html-button-response"", ""trial_index"": 0, ""time_elapsed"": 1873, ""internal_node_id"": ""0.0-0.0"", ""uniqueId"": ""A2DIZAZV0B2WI0:30MVJZJNHNDZS95N4GB02617TAA9J5"", ""condition"": 0, ""counterbalance"": 0}"
A2DIZAZV0B2WI0:30MVJZJNHNDZS95N4GB02617TAA9J5,1,1579893339382,"{""rt"": 1364.3999999912921, ""stimulus"": ""Some sequences will be highly predictable, like these </p> (press spacebar when you figured out the pattern):"", ""button_pressed"": ""0"", ""trial_type"": ""html-button-response"", ""trial_index"": 1, ""time_elapsed"": 4240, ""internal_node_id"": ""0.0-1.0"", ""uniqueId"": ""A2DIZAZV0B2WI0:30MVJZJNHNDZS95N4GB02617TAA9J5"", ""condition"": 0, ""counterbalance"": 0}"
A2DIZAZV0B2WI0:30MVJZJNHNDZS95N4GB02617TAA9J5,2,1579893341188,"{""rt"": null, ""stimulus"": ""<div style=\""font-size:65px;\"">  <p> </p>A</div>"", ""key_press"": null, ""test_part"": ""training"", ""next_elem"": ""B"", ""trial_type"": ""html-keyboard-response"", ""trial_index"": 2, ""time_elapsed"": 6046, ""internal_node_id"": ""0.0-2.0-0.0-0.0"", ""uniqueId"": ""A2DIZAZV0B2WI0:30MVJZJNHNDZS95N4GB02617TAA9J5"", ""condition"": 0, ""counterbalance"": 0}"
A2DIZAZV0B2WI0:30MVJZJNHNDZS95N4GB02617TAA9J5,3,1579893342294,"{""rt"": null, ""stimulus"": ""<div style=\""font-size:65px;\"">  <p> </p>B</div>"", ""key_press"": null, ""test_part"": ""training"", ""next_elem"": ""C"", ""trial_type"": ""html-keyboard-response"", ""trial_index"": 3, ""time_elapsed"": 7152, ""internal_node_id"": ""0.0-2.0-0.0-0.1"", ""uniqueId"": ""A2DIZAZV0B2WI0:30MVJZJNHNDZS95N4GB02617TAA9J5"", ""condition"": 0, ""counterbalance"": 0}"
A2DIZAZV0B2WI0:30MVJZJNHNDZS95N4GB02617TAA9J5,4,1579893343138,"{""rt"": 542.0200000226032, ""stimulus"": ""<div style=\""font-size:65px;\"">  <p> </p>C</div>"", ""key_press"": 32, ""test_part"": ""training"", ""next_elem"": ""A"", ""trial_type"": ""html-keyboard-response"", ""trial_index"": 4, ""time_elapsed"": 7996, ""internal_node_id"": ""0.0-2.0-0.0-0.2"", ""uniqueId"": ""A2DIZAZV0B2WI0:30MVJZJNHNDZS95N4GB02617TAA9J5"", ""condition"": 0, ""counterbalance"": 0}"
A2DIZAZV0B2WI0:30MVJZJNHNDZS95N4GB02617TAA9J5,5,1579893343443,"{""rt"": null, ""stimulus"": """", ""key_press"": null, ""test_part"": ""training"", ""next_elem"": ""B"", ""trial_type"": ""html-keyboard-response"", ""trial_index"": 5, ""time_elapsed"": 8301, ""internal_node_id"": ""0.0-2.0-0.0-0.3"", ""uniqueId"": ""A2DIZAZV0B2WI0:30MVJZJNHNDZS95N4GB02617TAA9J5"", ""condition"": 0, ""counterbalance"": 0}"
A2DIZAZV0B2WI0:30MVJZJNHNDZS95N4GB02617TAA9J5,6,1579893345479,"{""rt"": 2033.7500000023283, ""responses"": ""{\""Q0\"":4}"", ""question_order"": ""[0]"", ""trial_type"": ""survey-likert"", ""trial_index"": 6, ""time_elapsed"": 10337, ""internal_node_id"": ""0.0-2.0-1.0"", ""uniqueId"": ""A2DIZAZV0B2WI0:30MVJZJNHNDZS95N4GB02617TAA9J5"", ""condition"": 0, ""counterbalance"": 0}"
A2DIZAZV0B2WI0:30MVJZJNHNDZS95N4GB02617TAA9J5,7,1579893348056,"{""rt"": 2573.8100000016857, ""responses"": ""{\""Q0\"":\""A\""}"", ""question_order"": ""[0]"", ""trial_type"": ""survey-multi-choice"", ""trial_index"": 7, ""time_elapsed"": 12914, ""internal_node_id"": ""0.0-2.0-2.0"", ""uniqueId"": ""A2DIZAZV0B2WI0:30MVJZJNHNDZS95N4GB02617TAA9J5"", ""condition"": 0, ""counterbalance"": 0}"
A2DIZAZV0B2WI0:30MVJZJNHNDZS95N4GB02617TAA9J5,8,1579893348930,"{""rt"": 871.7150000156835, ""stimulus"": ""Correct!"", ""button_pressed"": ""0"", ""trial_type"": ""html-button-response"", ""trial_index"": 8, ""time_elapsed"": 13788, ""internal_node_id"": ""0.0-2.0-3.0"", ""uniqueId"": ""A2DIZAZV0B2WI0:30MVJZJNHNDZS95N4GB02617TAA9J5"", ""condition"": 0, ""counterbalance"": 0}"
A2DIZAZV0B2WI0:30MVJZJNHNDZS95N4GB02617TAA9J5,9,1579893349735,"{""rt"": null, ""stimulus"": ""<div style=\""font-size:65px;\"">  <p> </p>A</div>"", ""key_press"": null, ""test_part"": ""training"", ""next_elem"": ""A"", ""trial_type"": ""html-keyboard-response"", ""trial_index"": 9, ""time_elapsed"": 14593, ""internal_node_id"": ""0.0-3.0-0.0-0.0"", ""uniqueId"": ""A2DIZAZV0B2WI0:30MVJZJNHNDZS95N4GB02617TAA9J5"", ""condition"": 0, ""counterbalance"": 0}"
A2DIZAZV0B2WI0:30MVJZJNHNDZS95N4GB02617TAA9J5,10,1579893350839,"{""rt"": null, ""stimulus"": ""<div style=\""font-size:65px;\"">  <p> </p>A</div>"", ""key_press"": null, ""test_part"": ""training"", ""next_elem"": ""A"", ""trial_type"": ""html-keyboard-response"", ""trial_index"": 10, ""time_elapsed"": 15697, ""internal_node_id"": ""0.0-3.0-0.0-0.1"", ""uniqueId"": ""A2DIZAZV0B2WI0:30MVJZJNHNDZS95N4GB02617TAA9J5"", ""condition"": 0, ""counterbalance"": 0}"
A2DIZAZV0B2WI0:30MVJZJNHNDZS95N4GB02617TAA9J5,11,1579893351942,"{""rt"": null, ""stimulus"": ""<div style=\""font-size:65px;\"">  <p> </p>A</div>"", ""key_press"": null, ""test_part"": ""training"", ""next_elem"": ""A"", ""trial_type"": ""html-keyboard-response"", ""trial_index"": 11, ""time_elapsed"": 16800, ""internal_node_id"": ""0.0-3.0-0.0-0.2"", ""uniqueId"": ""A2DIZAZV0B2WI0:30MVJZJNHNDZS95N4GB02617TAA9J5"", ""condition"": 0, ""counterbalance"": 0}"
A2DIZAZV0B2WI0:30MVJZJNHNDZS95N4GB02617TAA9J5,12,1579893352826,"{""rt"": 581.2549999973271, ""stimulus"": ""<div style=\""font-size:65px;\"">  <p> </p>A</div>"", ""key_press"": 32, ""test_part"": ""training"", ""next_elem"": ""A"", ""trial_type"": ""html-keyboard-response"", ""trial_index"": 12, ""time_elapsed"": 17684, ""internal_node_id"": ""0.0-3.0-0.0-0.3"", ""uniqueId"": ""A2DIZAZV0B2WI0:30MVJZJNHNDZS95N4GB02617TAA9J5"", ""condition"": 0, ""counterbalance"": 0}"
A2DIZAZV0B2WI0:30MVJZJNHNDZS95N4GB02617TAA9J5,13,1579893353128,"{""rt"": null, ""stimulus"": """", ""key_press"": null, ""test_part"": ""training"", ""next_elem"": ""A"", ""trial_type"": ""html-keyboard-response"", ""trial_index"": 13, ""time_elapsed"": 17986, ""internal_node_id"": ""0.0-3.0-0.0-0.4"", ""uniqueId"": ""A2DIZAZV0B2WI0:30MVJZJNHNDZS95N4GB02617TAA9J5"", ""condition"": 0, ""counterbalance"": 0}"
A2DIZAZV0B2WI0:30MVJZJNHNDZS95N4GB02617TAA9J5,14,1579893354913,"{""rt"": 1784.0549999964423, ""responses"": ""{\""Q0\"":4}"", ""question_order"": ""[0]"", ""trial_type"": ""survey-likert"", ""trial_index"": 14, ""time_elapsed"": 19771, ""internal_node_id"": ""0.0-3.0-1.0"", ""uniqueId"": ""A2DIZAZV0B2WI0:30MVJZJNHNDZS95N4GB02617TAA9J5"", ""condition"": 0, ""counterbalance"": 0}"
A2DIZAZV0B2WI0:30MVJZJNHNDZS95N4GB02617TAA9J5,15,1579893357365,"{""rt"": 2449.8250000178814, ""responses"": ""{\""Q0\"":\""A\""}"", ""question_order"": ""[0]"", ""trial_type"": ""survey-multi-choice"", ""trial_index"": 15, ""time_elapsed"": 22223, ""internal_node_id"": ""0.0-3.0-2.0"", ""uniqueId"": ""A2DIZAZV0B2WI0:30MVJZJNHNDZS95N4GB02617TAA9J5"", ""condition"": 0, ""counterbalance"": 0}"
A2DIZAZV0B2WI0:30MVJZJNHNDZS95N4GB02617TAA9J5,16,1579893358207,"{""rt"": 839.5449999952689, ""stimulus"": ""Correct!"", ""button_pressed"": ""0"", ""trial_type"": ""html-button-response"", ""trial_index"": 16, ""time_elapsed"": 23065, ""internal_node_id"": ""0.0-3.0-3.0"", ""uniqueId"": ""A2DIZAZV0B2WI0:30MVJZJNHNDZS95N4GB02617TAA9J5"", ""condition"": 0, ""counterbalance"": 0}"
A2DIZAZV0B2WI0:30MVJZJNHNDZS95N4GB02617TAA9J5,17,1579893359142,"{""rt"": 933.7850000010803, ""stimulus"": ""<p> Some sequences may be completely random, like this one </p>(press spacebar you have convinced yourself that the sequence is random)"", ""button_pressed"": ""0"", ""trial_type"": ""html-button-response"", ""trial_index"": 17, ""time_elapsed"": 24000, ""internal_node_id"": ""0.0-4.0"", ""uniqueId"": ""A2DIZAZV0B2WI0:30MVJZJNHNDZS95N4GB02617TAA9J5"", ""condition"": 0, ""counterbalance"": 0}"
A2DIZAZV0B2WI0:30MVJZJNHNDZS95N4GB02617TAA9J5,18,1579893359945,"{""rt"": null, ""stimulus"": ""<div style=\""font-size:65px;\"">A</div>"", ""key_press"": null, ""test_part"": ""training"", ""next_elem"": ""B"", ""trial_type"": ""html-keyboard-response"", ""trial_index"": 18, ""time_elapsed"": 24803, ""internal_node_id"": ""0.0-5.0-0.0-0.0"", ""uniqueId"": ""A2DIZAZV0B2WI0:30MVJZJNHNDZS95N4GB02617TAA9J5"", ""condition"": 0, ""counterbalance"": 0}"
A2DIZAZV0B2WI0:30MVJZJNHNDZS95N4GB02617TAA9J5,19,1579893361050,"{""rt"": null, ""stimulus"": ""<div style=\""font-size:65px;\"">B</div>"", ""key_press"": null, ""test_part"": ""training"", ""next_elem"": ""B"", ""trial_type"": ""html-keyboard-response"", ""trial_index"": 19, ""time_elapsed"": 25908, ""internal_node_id"": ""0.0-5.0-0.0-0.1"", ""uniqueId"": ""A2DIZAZV0B2WI0:30MVJZJNHNDZS95N4GB02617TAA9J5"", ""condition"": 0, ""counterbalance"": 0}"
A2DIZAZV0B2WI0:30MVJZJNHNDZS95N4GB02617TAA9J5,20,1579893362153,"{""rt"": null, ""stimulus"": ""<div style=\""font-size:65px;\"">B</div>"", ""key_press"": null, ""test_part"": ""training"", ""next_elem"": ""C"", ""trial_type"": ""html-keyboard-response"", ""trial_index"": 20, ""time_elapsed"": 27011, ""internal_node_id"": ""0.0-5.0-0.0-0.2"", ""uniqueId"": ""A2DIZAZV0B2WI0:30MVJZJNHNDZS95N4GB02617TAA9J5"", ""condition"": 0, ""counterbalance"": 0}"
A2DIZAZV0B2WI0:30MVJZJNHNDZS95N4GB02617TAA9J5,21,1579893363258,"{""rt"": null, ""stimulus"": ""<div style=\""font-size:65px;\"">C</div>"", ""key_press"": null, ""test_part"": ""training"", ""next_elem"": ""B"", ""trial_type"": ""html-keyboard-response"", ""trial_index"": 21, ""time_elapsed"": 28116, ""internal_node_id"": ""0.0-5.0-0.0-0.3"", ""uniqueId"": ""A2DIZAZV0B2WI0:30MVJZJNHNDZS95N4GB02617TAA9J5"", ""condition"": 0, ""counterbalance"": 0}"
A2DIZAZV0B2WI0:30MVJZJNHNDZS95N4GB02617TAA9J5,22,1579893364131,"{""rt"": 567.269999999553, ""stimulus"": ""<div style=\""font-size:65px;\"">B</div>"", ""key_press"": 32, ""test_part"": ""training"", ""next_elem"": ""A"", ""trial_type"": ""html-keyboard-response"", ""trial_index"": 22, ""time_elapsed"": 28989, ""internal_node_id"": ""0.0-5.0-0.0-0.4"", ""uniqueId"": ""A2DIZAZV0B2WI0:30MVJZJNHNDZS95N4GB02617TAA9J5"", ""condition"": 0, ""counterbalance"": 0}"
A2DIZAZV0B2WI0:30MVJZJNHNDZS95N4GB02617TAA9J5,23,1579893364438,"{""rt"": null, ""stimulus"": """", ""key_press"": null, ""test_part"": ""training"", ""next_elem"": ""C"", ""trial_type"": ""html-keyboard-response"", ""trial_index"": 23, ""time_elapsed"": 29295, ""internal_node_id"": ""0.0-5.0-0.0-0.5"", ""uniqueId"": ""A2DIZAZV0B2WI0:30MVJZJNHNDZS95N4GB02617TAA9J5"", ""condition"": 0, ""counterbalance"": 0}"
A2DIZAZV0B2WI0:30MVJZJNHNDZS95N4GB02617TAA9J5,24,1579893367085,"{""rt"": 2646.6700000164565, ""responses"": ""{\""Q0\"":0}"", ""question_order"": ""[0]"", ""trial_type"": ""survey-likert"", ""trial_index"": 24, ""time_elapsed"": 31943, ""internal_node_id"": ""0.0-5.0-1.0"", ""uniqueId"": ""A2DIZAZV0B2WI0:30MVJZJNHNDZS95N4GB02617TAA9J5"", ""condition"": 0, ""counterbalance"": 0}"
A2DIZAZV0B2WI0:30MVJZJNHNDZS95N4GB02617TAA9J5,25,1579893369080,"{""rt"": 1992.9049999918789, ""responses"": ""{\""Q0\"":\""A\""}"", ""question_order"": ""[0]"", ""trial_type"": ""survey-multi-choice"", ""trial_index"": 25, ""time_elapsed"": 33938, ""internal_node_id"": ""0.0-5.0-2.0"", ""uniqueId"": ""A2DIZAZV0B2WI0:30MVJZJNHNDZS95N4GB02617TAA9J5"", ""condition"": 0, ""counterbalance"": 0}"
A2DIZAZV0B2WI0:30MVJZJNHNDZS95N4GB02617TAA9J5,26,1579893369938,"{""rt"": 855.9300000197254, ""stimulus"": ""Correct!"", ""button_pressed"": ""0"", ""trial_type"": ""html-button-response"", ""trial_index"": 26, ""time_elapsed"": 34796, ""internal_node_id"": ""0.0-5.0-3.0"", ""uniqueId"": ""A2DIZAZV0B2WI0:30MVJZJNHNDZS95N4GB02617TAA9J5"", ""condition"": 0, ""counterbalance"": 0}"
A2DIZAZV0B2WI0:30MVJZJNHNDZS95N4GB02617TAA9J5,27,1579893370658,"{""rt"": 719.2450000147801, ""stimulus"": ""<p> You are now ready to proceed with the actual experiment. </p><p>Some sequences will be random, some will not, and others will be somewhere in between </p>"", ""button_pressed"": ""0"", ""trial_type"": ""html-button-response"", ""trial_index"": 27, ""time_elapsed"": 35516, ""internal_node_id"": ""0.0-6.0"", ""uniqueId"": ""A2DIZAZV0B2WI0:30MVJZJNHNDZS95N4GB02617TAA9J5"", ""condition"": 0, ""counterbalance"": 0}"
A2DIZAZV0B2WI0:30MVJZJNHNDZS95N4GB02617TAA9J5,28,1579893371461,"{""rt"": null, ""stimulus"": ""<div style=\""font-size:65px;\"">A</div>"", ""key_press"": null, ""test_part"": ""test"", ""next_elem"": ""A"", ""trial_type"": ""html-keyboard-response"", ""trial_index"": 28, ""time_elapsed"": 36319, ""internal_node_id"": ""0.0-7.0-0.0-0.0"", ""uniqueId"": ""A2DIZAZV0B2WI0:30MVJZJNHNDZS95N4GB02617TAA9J5"", ""condition"": 0, ""counterbalance"": 0}"
A2DIZAZV0B2WI0:30MVJZJNHNDZS95N4GB02617TAA9J5,29,1579893372563,"{""rt"": null, ""stimulus"": ""<div style=\""font-size:65px;\"">A</div>"", ""key_press"": null, ""test_part"": ""test"", ""next_elem"": ""A"", ""trial_type"": ""html-keyboard-response"", ""trial_index"": 29, ""time_elapsed"": 37421, ""internal_node_id"": ""0.0-7.0-0.0-0.1"", ""uniqueId"": ""A2DIZAZV0B2WI0:30MVJZJNHNDZS95N4GB02617TAA9J5"", ""condition"": 0, ""counterbalance"": 0}"
A2DIZAZV0B2WI0:30MVJZJNHNDZS95N4GB02617TAA9J5,30,1579893373159,"{""rt"": 294.36999998870306, ""stimulus"": ""<div style=\""font-size:65px;\"">A</div>"", ""key_press"": 32, ""test_part"": ""test"", ""next_elem"": ""C"", ""trial_type"": ""html-keyboard-response"", ""trial_index"": 30, ""time_elapsed"": 38017, ""internal_node_id"": ""0.0-7.0-0.0-0.2"", ""uniqueId"": ""A2DIZAZV0B2WI0:30MVJZJNHNDZS95N4GB02617TAA9J5"", ""condition"": 0, ""counterbalance"": 0}"
A2DIZAZV0B2WI0:30MVJZJNHNDZS95N4GB02617TAA9J5,31,1579893373461,"{""rt"": null, ""stimulus"": """", ""key_press"": null, ""test_part"": ""test"", ""next_elem"": ""B"", ""trial_type"": ""html-keyboard-response"", ""trial_index"": 31, ""time_elapsed"": 38319, ""internal_node_id"": ""0.0-7.0-0.0-0.3"", ""uniqueId"": ""A2DIZAZV0B2WI0:30MVJZJNHNDZS95N4GB02617TAA9J5"", ""condition"": 0, ""counterbalance"": 0}"
A2DIZAZV0B2WI0:30MVJZJNHNDZS95N4GB02617TAA9J5,32,1579893376841,"{""rt"": 3379.114999988815, ""responses"": ""{\""Q0\"":9}"", ""question_order"": ""[0]"", ""trial_type"": ""survey-likert"", ""trial_index"": 32, ""time_elapsed"": 41699, ""internal_node_id"": ""0.0-7.0-1.0"", ""uniqueId"": ""A2DIZAZV0B2WI0:30MVJZJNHNDZS95N4GB02617TAA9J5"", ""condition"": 0, ""counterbalance"": 0}"
A2DIZAZV0B2WI0:30MVJZJNHNDZS95N4GB02617TAA9J5,33,1579893378646,"{""rt"": 1802.529999986291, ""responses"": ""{\""Q0\"":\""A\""}"", ""question_order"": ""[0]"", ""trial_type"": ""survey-multi-choice"", ""trial_index"": 33, ""time_elapsed"": 43503, ""internal_node_id"": ""0.0-7.0-2.0"", ""uniqueId"": ""A2DIZAZV0B2WI0:30MVJZJNHNDZS95N4GB02617TAA9J5"", ""condition"": 0, ""counterbalance"": 0}"
A2DIZAZV0B2WI0:30MVJZJNHNDZS95N4GB02617TAA9J5,34,1579893379463,"{""rt"": 815.455000003567, ""stimulus"": ""Incorrect!<p> The correct choice was: C"", ""button_pressed"": ""0"", ""trial_type"": ""html-button-response"", ""trial_index"": 34, ""time_elapsed"": 44321, ""internal_node_id"": ""0.0-7.0-3.0"", ""uniqueId"": ""A2DIZAZV0B2WI0:30MVJZJNHNDZS95N4GB02617TAA9J5"", ""condition"": 0, ""counterbalance"": 0}"
A2DIZAZV0B2WI0:30MVJZJNHNDZS95N4GB02617TAA9J5,35,1579893380265,"{""rt"": null, ""stimulus"": ""<div style=\""font-size:65px;\"">C</div>"", ""key_press"": null, ""test_part"": ""test"", ""next_elem"": ""A"", ""trial_type"": ""html-keyboard-response"", ""trial_index"": 35, ""time_elapsed"": 45123, ""internal_node_id"": ""0.0-8.0-0.0-0.0"", ""uniqueId"": ""A2DIZAZV0B2WI0:30MVJZJNHNDZS95N4GB02617TAA9J5"", ""condition"": 0, ""counterbalance"": 0}"
A2DIZAZV0B2WI0:30MVJZJNHNDZS95N4GB02617TAA9J5,36,1579893381368,"{""rt"": null, ""stimulus"": ""<div style=\""font-size:65px;\"">A</div>"", ""key_press"": null, ""test_part"": ""test"", ""next_elem"": ""B"", ""trial_type"": ""html-keyboard-response"", ""trial_index"": 36, ""time_elapsed"": 46226, ""internal_node_id"": ""0.0-8.0-0.0-0.1"", ""uniqueId"": ""A2DIZAZV0B2WI0:30MVJZJNHNDZS95N4GB02617TAA9J5"", ""condition"": 0, ""counterbalance"": 0}"
A2DIZAZV0B2WI0:30MVJZJNHNDZS95N4GB02617TAA9J5,37,1579893382471,"{""rt"": null, ""stimulus"": ""<div style=\""font-size:65px;\"">B</div>"", ""key_press"": null, ""test_part"": ""test"", ""next_elem"": ""A"", ""trial_type"": ""html-keyboard-response"", ""trial_index"": 37, ""time_elapsed"": 47329, ""internal_node_id"": ""0.0-8.0-0.0-0.2"", ""uniqueId"": ""A2DIZAZV0B2WI0:30MVJZJNHNDZS95N4GB02617TAA9J5"", ""condition"": 0, ""counterbalance"": 0}"
A2DIZAZV0B2WI0:30MVJZJNHNDZS95N4GB02617TAA9J5,38,1579893383574,"{""rt"": null, ""stimulus"": ""<div style=\""font-size:65px;\"">A</div>"", ""key_press"": null, ""test_part"": ""test"", ""next_elem"": ""B"", ""trial_type"": ""html-keyboard-response"", ""trial_index"": 38, ""time_elapsed"": 48432, ""internal_node_id"": ""0.0-8.0-0.0-0.3"", ""uniqueId"": ""A2DIZAZV0B2WI0:30MVJZJNHNDZS95N4GB02617TAA9J5"", ""condition"": 0, ""counterbalance"": 0}"
A2DIZAZV0B2WI0:30MVJZJNHNDZS95N4GB02617TAA9J5,39,1579893384676,"{""rt"": null, ""stimulus"": ""<div style=\""font-size:65px;\"">B</div>"", ""key_press"": null, ""test_part"": ""test"", ""next_elem"": ""C"", ""trial_type"": ""html-keyboard-response"", ""trial_index"": 39, ""time_elapsed"": 49534, ""internal_node_id"": ""0.0-8.0-0.0-0.4"", ""uniqueId"": ""A2DIZAZV0B2WI0:30MVJZJNHNDZS95N4GB02617TAA9J5"", ""condition"": 0, ""counterbalance"": 0}"
A2DIZAZV0B2WI0:30MVJZJNHNDZS95N4GB02617TAA9J5,40,1579893386774,"{""rt"": 1795.6249999988358, ""responses"": ""{\""Q0\"":5}"", ""question_order"": ""[0]"", ""trial_type"": ""survey-likert"", ""trial_index"": 40, ""time_elapsed"": 51632, ""internal_node_id"": ""0.0-8.0-1.0"", ""uniqueId"": ""A2DIZAZV0B2WI0:30MVJZJNHNDZS95N4GB02617TAA9J5"", ""condition"": 0, ""counterbalance"": 0}"
A2DIZAZV0B2WI0:30MVJZJNHNDZS95N4GB02617TAA9J5,41,1579893388822,"{""rt"": 2045.0649999838788, ""responses"": ""{\""Q0\"":\""B\""}"", ""question_order"": ""[0]"", ""trial_type"": ""survey-multi-choice"", ""trial_index"": 41, ""time_elapsed"": 53680, ""internal_node_id"": ""0.0-8.0-2.0"", ""uniqueId"": ""A2DIZAZV0B2WI0:30MVJZJNHNDZS95N4GB02617TAA9J5"", ""condition"": 0, ""counterbalance"": 0}"
A2DIZAZV0B2WI0:30MVJZJNHNDZS95N4GB02617TAA9J5,42,1579893389821,"{""rt"": 996.3100000168197, ""stimulus"": ""Correct!"", ""button_pressed"": ""0"", ""trial_type"": ""html-button-response"", ""trial_index"": 42, ""time_elapsed"": 54678, ""internal_node_id"": ""0.0-8.0-3.0"", ""uniqueId"": ""A2DIZAZV0B2WI0:30MVJZJNHNDZS95N4GB02617TAA9J5"", ""condition"": 0, ""counterbalance"": 0}"
A2DIZAZV0B2WI0:30MVJZJNHNDZS95N4GB02617TAA9J5,43,1579893390625,"{""rt"": null, ""stimulus"": ""<div style=\""font-size:65px;\"">C</div>"", ""key_press"": null, ""test_part"": ""test"", ""next_elem"": ""C"", ""trial_type"": ""html-keyboard-response"", ""trial_index"": 43, ""time_elapsed"": 55483, ""internal_node_id"": ""0.0-9.0-0.0-0.0"", ""uniqueId"": ""A2DIZAZV0B2WI0:30MVJZJNHNDZS95N4GB02617TAA9J5"", ""condition"": 0, ""counterbalance"": 0}"
A2DIZAZV0B2WI0:30MVJZJNHNDZS95N4GB02617TAA9J5,44,1579893391732,"{""rt"": null, ""stimulus"": ""<div style=\""font-size:65px;\"">C</div>"", ""key_press"": null, ""test_part"": ""test"", ""next_elem"": ""C"", ""trial_type"": ""html-keyboard-response"", ""trial_index"": 44, ""time_elapsed"": 56590, ""internal_node_id"": ""0.0-9.0-0.0-0.1"", ""uniqueId"": ""A2DIZAZV0B2WI0:30MVJZJNHNDZS95N4GB02617TAA9J5"", ""condition"": 0, ""counterbalance"": 0}"
A2DIZAZV0B2WI0:30MVJZJNHNDZS95N4GB02617TAA9J5,45,1579893392834,"{""rt"": null, ""stimulus"": ""<div style=\""font-size:65px;\"">C</div>"", ""key_press"": null, ""test_part"": ""test"", ""next_elem"": ""B"", ""trial_type"": ""html-keyboard-response"", ""trial_index"": 45, ""time_elapsed"": 57692, ""internal_node_id"": ""0.0-9.0-0.0-0.2"", ""uniqueId"": ""A2DIZAZV0B2WI0:30MVJZJNHNDZS95N4GB02617TAA9J5"", ""condition"": 0, ""counterbalance"": 0}"
A2DIZAZV0B2WI0:30MVJZJNHNDZS95N4GB02617TAA9J5,46,1579893393935,"{""rt"": null, ""stimulus"": ""<div style=\""font-size:65px;\"">B</div>"", ""key_press"": null, ""test_part"": ""test"", ""next_elem"": ""B"", ""trial_type"": ""html-keyboard-response"", ""trial_index"": 46, ""time_elapsed"": 58793, ""internal_node_id"": ""0.0-9.0-0.0-0.3"", ""uniqueId"": ""A2DIZAZV0B2WI0:30MVJZJNHNDZS95N4GB02617TAA9J5"", ""condition"": 0, ""counterbalance"": 0}"
A2DIZAZV0B2WI0:30MVJZJNHNDZS95N4GB02617TAA9J5,47,1579893395043,"{""rt"": null, ""stimulus"": ""<div style=\""font-size:65px;\"">B</div>"", ""key_press"": null, ""test_part"": ""test"", ""next_elem"": "" "", ""trial_type"": ""html-keyboard-response"", ""trial_index"": 47, ""time_elapsed"": 59900, ""internal_node_id"": ""0.0-9.0-0.0-0.4"", ""uniqueId"": ""A2DIZAZV0B2WI0:30MVJZJNHNDZS95N4GB02617TAA9J5"", ""condition"": 0, ""counterbalance"": 0}"
A2DIZAZV0B2WI0:30MVJZJNHNDZS95N4GB02617TAA9J5,48,1579893397161,"{""rt"": 1817.4700000090525, ""responses"": ""{\""Q0\"":3}"", ""question_order"": ""[0]"", ""trial_type"": ""survey-likert"", ""trial_index"": 48, ""time_elapsed"": 62019, ""internal_node_id"": ""0.0-9.0-1.0"", ""uniqueId"": ""A2DIZAZV0B2WI0:30MVJZJNHNDZS95N4GB02617TAA9J5"", ""condition"": 0, ""counterbalance"": 0}"
A2DIZAZV0B2WI0:30MVJZJNHNDZS95N4GB02617TAA9J5,49,1579893399083,"{""rt"": 1920.1149999862537, ""responses"": ""{\""Q0\"":\""A\""}"", ""question_order"": ""[0]"", ""trial_type"": ""survey-multi-choice"", ""trial_index"": 49, ""time_elapsed"": 63941, ""internal_node_id"": ""0.0-9.0-2.0"", ""uniqueId"": ""A2DIZAZV0B2WI0:30MVJZJNHNDZS95N4GB02617TAA9J5"", ""condition"": 0, ""counterbalance"": 0}"
A2DIZAZV0B2WI0:30MVJZJNHNDZS95N4GB02617TAA9J5,50,1579893401131,"{""rt"": 2045.8399999770336, ""stimulus"": ""Incorrect!<p> The correct choice was: B"", ""button_pressed"": ""0"", ""trial_type"": ""html-button-response"", ""trial_index"": 50, ""time_elapsed"": 65989, ""internal_node_id"": ""0.0-9.0-3.0"", ""uniqueId"": ""A2DIZAZV0B2WI0:30MVJZJNHNDZS95N4GB02617TAA9J5"", ""condition"": 0, ""counterbalance"": 0}"
A2DIZAZV0B2WI0:30MVJZJNHNDZS95N4GB02617TAA9J5,51,1579893401932,"{""rt"": null, ""stimulus"": ""<div style=\""font-size:65px;\"">B</div>"", ""key_press"": null, ""test_part"": ""test"", ""next_elem"": ""B"", ""trial_type"": ""html-keyboard-response"", ""trial_index"": 51, ""time_elapsed"": 66790, ""internal_node_id"": ""0.0-10.0-0.0-0.0"", ""uniqueId"": ""A2DIZAZV0B2WI0:30MVJZJNHNDZS95N4GB02617TAA9J5"", ""condition"": 0, ""counterbalance"": 0}"
A2DIZAZV0B2WI0:30MVJZJNHNDZS95N4GB02617TAA9J5,52,1579893403040,"{""rt"": null, ""stimulus"": ""<div style=\""font-size:65px;\"">B</div>"", ""key_press"": null, ""test_part"": ""test"", ""next_elem"": ""B"", ""trial_type"": ""html-keyboard-response"", ""trial_index"": 52, ""time_elapsed"": 67897, ""internal_node_id"": ""0.0-10.0-0.0-0.1"", ""uniqueId"": ""A2DIZAZV0B2WI0:30MVJZJNHNDZS95N4GB02617TAA9J5"", ""condition"": 0, ""counterbalance"": 0}"
A2DIZAZV0B2WI0:30MVJZJNHNDZS95N4GB02617TAA9J5,53,1579893404140,"{""rt"": null, ""stimulus"": ""<div style=\""font-size:65px;\"">B</div>"", ""key_press"": null, ""test_part"": ""test"", ""next_elem"": ""C"", ""trial_type"": ""html-keyboard-response"", ""trial_index"": 53, ""time_elapsed"": 68998, ""internal_node_id"": ""0.0-10.0-0.0-0.2"", ""uniqueId"": ""A2DIZAZV0B2WI0:30MVJZJNHNDZS95N4GB02617TAA9J5"", ""condition"": 0, ""counterbalance"": 0}"
A2DIZAZV0B2WI0:30MVJZJNHNDZS95N4GB02617TAA9J5,54,1579893405247,"{""rt"": null, ""stimulus"": ""<div style=\""font-size:65px;\"">C</div>"", ""key_press"": null, ""test_part"": ""test"", ""next_elem"": "" "", ""trial_type"": ""html-keyboard-response"", ""trial_index"": 54, ""time_elapsed"": 70105, ""internal_node_id"": ""0.0-10.0-0.0-0.3"", ""uniqueId"": ""A2DIZAZV0B2WI0:30MVJZJNHNDZS95N4GB02617TAA9J5"", ""condition"": 0, ""counterbalance"": 0}"
A2DIZAZV0B2WI0:30MVJZJNHNDZS95N4GB02617TAA9J5,55,1579893406348,"{""rt"": null, ""stimulus"": ""<div style=\""font-size:65px;\""> </div>"", ""key_press"": null, ""test_part"": ""test"", ""next_elem"": "" "", ""trial_type"": ""html-keyboard-response"", ""trial_index"": 55, ""time_elapsed"": 71206, ""internal_node_id"": ""0.0-10.0-0.0-0.4"", ""uniqueId"": ""A2DIZAZV0B2WI0:30MVJZJNHNDZS95N4GB02617TAA9J5"", ""condition"": 0, ""counterbalance"": 0}"
A2DIZAZV0B2WI0:30MVJZJNHNDZS95N4GB02617TAA9J5,56,1579893408799,"{""rt"": 2145.619999995688, ""responses"": ""{\""Q0\"":7}"", ""question_order"": ""[0]"", ""trial_type"": ""survey-likert"", ""trial_index"": 56, ""time_elapsed"": 73657, ""internal_node_id"": ""0.0-10.0-1.0"", ""uniqueId"": ""A2DIZAZV0B2WI0:30MVJZJNHNDZS95N4GB02617TAA9J5"", ""condition"": 0, ""counterbalance"": 0}"
A2DIZAZV0B2WI0:30MVJZJNHNDZS95N4GB02617TAA9J5,57,1579893410616,"{""rt"": 1814.3050000071526, ""responses"": ""{\""Q0\"":\""C\""}"", ""question_order"": ""[0]"", ""trial_type"": ""survey-multi-choice"", ""trial_index"": 57, ""time_elapsed"": 75474, ""internal_node_id"": ""0.0-10.0-2.0"", ""uniqueId"": ""A2DIZAZV0B2WI0:30MVJZJNHNDZS95N4GB02617TAA9J5"", ""condition"": 0, ""counterbalance"": 0}"
A2DIZAZV0B2WI0:30MVJZJNHNDZS95N4GB02617TAA9J5,58,1579893411675,"{""rt"": 1056.7399999999907, ""stimulus"": ""Incorrect!<p> The correct choice was:  "", ""button_pressed"": ""0"", ""trial_type"": ""html-button-response"", ""trial_index"": 58, ""time_elapsed"": 76533, ""internal_node_id"": ""0.0-10.0-3.0"", ""uniqueId"": ""A2DIZAZV0B2WI0:30MVJZJNHNDZS95N4GB02617TAA9J5"", ""condition"": 0, ""counterbalance"": 0}"
A2DIZAZV0B2WI0:30MVJZJNHNDZS95N4GB02617TAA9J5,59,1579893412477,"{""rt"": null, ""stimulus"": ""<div style=\""font-size:65px;\"">A</div>"", ""key_press"": null, ""test_part"": ""test"", ""next_elem"": ""A"", ""trial_type"": ""html-keyboard-response"", ""trial_index"": 59, ""time_elapsed"": 77335, ""internal_node_id"": ""0.0-11.0-0.0-0.0"", ""uniqueId"": ""A2DIZAZV0B2WI0:30MVJZJNHNDZS95N4GB02617TAA9J5"", ""condition"": 0, ""counterbalance"": 0}"
A2DIZAZV0B2WI0:30MVJZJNHNDZS95N4GB02617TAA9J5,60,1579893413585,"{""rt"": null, ""stimulus"": ""<div style=\""font-size:65px;\"">A</div>"", ""key_press"": null, ""test_part"": ""test"", ""next_elem"": ""A"", ""trial_type"": ""html-keyboard-response"", ""trial_index"": 60, ""time_elapsed"": 78443, ""internal_node_id"": ""0.0-11.0-0.0-0.1"", ""uniqueId"": ""A2DIZAZV0B2WI0:30MVJZJNHNDZS95N4GB02617TAA9J5"", ""condition"": 0, ""counterbalance"": 0}"
A2DIZAZV0B2WI0:30MVJZJNHNDZS95N4GB02617TAA9J5,61,1579893414689,"{""rt"": null, ""stimulus"": ""<div style=\""font-size:65px;\"">A</div>"", ""key_press"": null, ""test_part"": ""test"", ""next_elem"": ""A"", ""trial_type"": ""html-keyboard-response"", ""trial_index"": 61, ""time_elapsed"": 79546, ""internal_node_id"": ""0.0-11.0-0.0-0.2"", ""uniqueId"": ""A2DIZAZV0B2WI0:30MVJZJNHNDZS95N4GB02617TAA9J5"", ""condition"": 0, ""counterbalance"": 0}"
A2DIZAZV0B2WI0:30MVJZJNHNDZS95N4GB02617TAA9J5,62,1579893415525,"{""rt"": 535.0799999723677, ""stimulus"": ""<div style=\""font-size:65px;\"">A</div>"", ""key_press"": 32, ""test_part"": ""test"", ""next_elem"": "" "", ""trial_type"": ""html-keyboard-response"", ""trial_index"": 62, ""time_elapsed"": 80383, ""internal_node_id"": ""0.0-11.0-0.0-0.3"", ""uniqueId"": ""A2DIZAZV0B2WI0:30MVJZJNHNDZS95N4GB02617TAA9J5"", ""condition"": 0, ""counterbalance"": 0}"
A2DIZAZV0B2WI0:30MVJZJNHNDZS95N4GB02617TAA9J5,63,1579893415827,"{""rt"": null, ""stimulus"": """", ""key_press"": null, ""test_part"": ""test"", ""next_elem"": "" "", ""trial_type"": ""html-keyboard-response"", ""trial_index"": 63, ""time_elapsed"": 80685, ""internal_node_id"": ""0.0-11.0-0.0-0.4"", ""uniqueId"": ""A2DIZAZV0B2WI0:30MVJZJNHNDZS95N4GB02617TAA9J5"", ""condition"": 0, ""counterbalance"": 0}"
A2DIZAZV0B2WI0:30MVJZJNHNDZS95N4GB02617TAA9J5,64,1579893417532,"{""rt"": 1703.6350000125822, ""responses"": ""{\""Q0\"":8}"", ""question_order"": ""[0]"", ""trial_type"": ""survey-likert"", ""trial_index"": 64, ""time_elapsed"": 82390, ""internal_node_id"": ""0.0-11.0-1.0"", ""uniqueId"": ""A2DIZAZV0B2WI0:30MVJZJNHNDZS95N4GB02617TAA9J5"", ""condition"": 0, ""counterbalance"": 0}"
A2DIZAZV0B2WI0:30MVJZJNHNDZS95N4GB02617TAA9J5,65,1579893419066,"{""rt"": 1531.7199999990407, ""responses"": ""{\""Q0\"":\""A\""}"", ""question_order"": ""[0]"", ""trial_type"": ""survey-multi-choice"", ""trial_index"": 65, ""time_elapsed"": 83924, ""internal_node_id"": ""0.0-11.0-2.0"", ""uniqueId"": ""A2DIZAZV0B2WI0:30MVJZJNHNDZS95N4GB02617TAA9J5"", ""condition"": 0, ""counterbalance"": 0}"
A2DIZAZV0B2WI0:30MVJZJNHNDZS95N4GB02617TAA9J5,66,1579893419988,"{""rt"": 920.97500001546, ""stimulus"": ""Incorrect!<p> The correct choice was:  "", ""button_pressed"": ""0"", ""trial_type"": ""html-button-response"", ""trial_index"": 66, ""time_elapsed"": 84846, ""internal_node_id"": ""0.0-11.0-3.0"", ""uniqueId"": ""A2DIZAZV0B2WI0:30MVJZJNHNDZS95N4GB02617TAA9J5"", ""condition"": 0, ""counterbalance"": 0}"
A2DIZAZV0B2WI0:30MVJZJNHNDZS95N4GB02617TAA9J5,67,1579893420790,"{""rt"": null, ""stimulus"": ""<div style=\""font-size:65px;\"">C</div>"", ""key_press"": null, ""test_part"": ""test"", ""next_elem"": ""B"", ""trial_type"": ""html-keyboard-response"", ""trial_index"": 67, ""time_elapsed"": 85648, ""internal_node_id"": ""0.0-12.0-0.0-0.0"", ""uniqueId"": ""A2DIZAZV0B2WI0:30MVJZJNHNDZS95N4GB02617TAA9J5"", ""condition"": 0, ""counterbalance"": 0}"
A2DIZAZV0B2WI0:30MVJZJNHNDZS95N4GB02617TAA9J5,68,1579893421891,"{""rt"": null, ""stimulus"": ""<div style=\""font-size:65px;\"">B</div>"", ""key_press"": null, ""test_part"": ""test"", ""next_elem"": ""C"", ""trial_type"": ""html-keyboard-response"", ""trial_index"": 68, ""time_elapsed"": 86749, ""internal_node_id"": ""0.0-12.0-0.0-0.1"", ""uniqueId"": ""A2DIZAZV0B2WI0:30MVJZJNHNDZS95N4GB02617TAA9J5"", ""condition"": 0, ""counterbalance"": 0}"
A2DIZAZV0B2WI0:30MVJZJNHNDZS95N4GB02617TAA9J5,69,1579893422996,"{""rt"": null, ""stimulus"": ""<div style=\""font-size:65px;\"">C</div>"", ""key_press"": null, ""test_part"": ""test"", ""next_elem"": ""A"", ""trial_type"": ""html-keyboard-response"", ""trial_index"": 69, ""time_elapsed"": 87854, ""internal_node_id"": ""0.0-12.0-0.0-0.2"", ""uniqueId"": ""A2DIZAZV0B2WI0:30MVJZJNHNDZS95N4GB02617TAA9J5"", ""condition"": 0, ""counterbalance"": 0}"
A2DIZAZV0B2WI0:30MVJZJNHNDZS95N4GB02617TAA9J5,70,1579893424100,"{""rt"": null, ""stimulus"": ""<div style=\""font-size:65px;\"">A</div>"", ""key_press"": null, ""test_part"": ""test"", ""next_elem"": ""A"", ""trial_type"": ""html-keyboard-response"", ""trial_index"": 70, ""time_elapsed"": 88958, ""internal_node_id"": ""0.0-12.0-0.0-0.3"", ""uniqueId"": ""A2DIZAZV0B2WI0:30MVJZJNHNDZS95N4GB02617TAA9J5"", ""condition"": 0, ""counterbalance"": 0}"
A2DIZAZV0B2WI0:30MVJZJNHNDZS95N4GB02617TAA9J5,71,1579893424759,"{""rt"": 352.0000000135042, ""stimulus"": ""<div style=\""font-size:65px;\"">A</div>"", ""key_press"": 32, ""test_part"": ""test"", ""next_elem"": "" "", ""trial_type"": ""html-keyboard-response"", ""trial_index"": 71, ""time_elapsed"": 89617, ""internal_node_id"": ""0.0-12.0-0.0-0.4"", ""uniqueId"": ""A2DIZAZV0B2WI0:30MVJZJNHNDZS95N4GB02617TAA9J5"", ""condition"": 0, ""counterbalance"": 0}"
A2DIZAZV0B2WI0:30MVJZJNHNDZS95N4GB02617TAA9J5,72,1579893427008,"{""rt"": 1943.6149999964982, ""responses"": ""{\""Q0\"":8}"", ""question_order"": ""[0]"", ""trial_type"": ""survey-likert"", ""trial_index"": 72, ""time_elapsed"": 91865, ""internal_node_id"": ""0.0-12.0-1.0"", ""uniqueId"": ""A2DIZAZV0B2WI0:30MVJZJNHNDZS95N4GB02617TAA9J5"", ""condition"": 0, ""counterbalance"": 0}"
A2DIZAZV0B2WI0:30MVJZJNHNDZS95N4GB02617TAA9J5,73,1579893428581,"{""rt"": 1571.7249999870546, ""responses"": ""{\""Q0\"":\""A\""}"", ""question_order"": ""[0]"", ""trial_type"": ""survey-multi-choice"", ""trial_index"": 73, ""time_elapsed"": 93439, ""internal_node_id"": ""0.0-12.0-2.0"", ""uniqueId"": ""A2DIZAZV0B2WI0:30MVJZJNHNDZS95N4GB02617TAA9J5"", ""condition"": 0, ""counterbalance"": 0}"
A2DIZAZV0B2WI0:30MVJZJNHNDZS95N4GB02617TAA9J5,74,1579893429464,"{""rt"": 880.4349999991246, ""stimulus"": ""Correct!"", ""button_pressed"": ""0"", ""trial_type"": ""html-button-response"", ""trial_index"": 74, ""time_elapsed"": 94322, ""internal_node_id"": ""0.0-12.0-3.0"", ""uniqueId"": ""A2DIZAZV0B2WI0:30MVJZJNHNDZS95N4GB02617TAA9J5"", ""condition"": 0, ""counterbalance"": 0}"
debugMZK07V:debugBIG8ZD,0,1579830145439,"{""rt"": 984.4049999956042, ""stimulus"": ""<p>Hi! Thanks so much for participating in our experiment! </p>This HIT is part of a MIT scientific research project. Your decision to complete this HIT is voluntary. </p>There is no way for us to identify you. The only information we will have, in addition to your responses, </p>is the time at which you completed the survey. The results of the research may be presented  </p>at scientific meetings  or published in scientific journals. Clicking on the 'SUBMIT' button on the bottom of </p>this page indicates that you are at least 18 years of age and agree to complete this HIT voluntarily. </p>"", ""button_pressed"": ""0"", ""trial_type"": ""html-button-response"", ""trial_index"": 0, ""time_elapsed"": 1007, ""internal_node_id"": ""0.0-0.0"", ""uniqueId"": ""debugMZK07V:debugBIG8ZD"", ""condition"": 0, ""counterbalance"": 0}"
debugMZK07V:debugBIG8ZD,1,1579830146089,"{""rt"": 649.4849999871803, ""stimulus"": ""<p>This session will last for 15min.</p><p> In each trial, you will see some symbols appearing one-by-one </p><p> and you will be asked to stop the sequence whenever you can answer some questions (more on this later). </p><p> Each sequence is independent from one another. </p><p> <br /> We will try this on some examples before we move on to the actual experiment: </p>"", ""button_pressed"": ""0"", ""trial_type"": ""html-button-response"", ""trial_index"": 1, ""time_elapsed"": 1657, ""internal_node_id"": ""0.0-1.0"", ""uniqueId"": ""debugMZK07V:debugBIG8ZD"", ""condition"": 0, ""counterbalance"": 0}"
debugMZK07V:debugBIG8ZD,2,1579830147773,"{""rt"": 682.5399999943329, ""stimulus"": ""Some sequences will be highly predictable, like these </p> (press spacebar when you figured out the pattern):"", ""button_pressed"": ""0"", ""trial_type"": ""html-button-response"", ""trial_index"": 2, ""time_elapsed"": 3341, ""internal_node_id"": ""0.0-2.0"", ""uniqueId"": ""debugMZK07V:debugBIG8ZD"", ""condition"": 0, ""counterbalance"": 0}"
debugMZK07V:debugBIG8ZD,3,1579830149577,"{""rt"": null, ""stimulus"": ""<div style=\""font-size:65px;\"">  <p> </p>A</div>"", ""key_press"": null, ""test_part"": ""training"", ""next_elem"": ""B"", ""trial_type"": ""html-keyboard-response"", ""trial_index"": 3, ""time_elapsed"": 5145, ""internal_node_id"": ""0.0-3.0-0.0-0.0"", ""uniqueId"": ""debugMZK07V:debugBIG8ZD"", ""condition"": 0, ""counterbalance"": 0}"
debugMZK07V:debugBIG8ZD,4,1579830150180,"{""rt"": 300.5399999965448, ""stimulus"": ""<div style=\""font-size:65px;\"">  <p> </p>B</div>"", ""key_press"": 32, ""test_part"": ""training"", ""next_elem"": ""C"", ""trial_type"": ""html-keyboard-response"", ""trial_index"": 4, ""time_elapsed"": 5748, ""internal_node_id"": ""0.0-3.0-0.0-0.1"", ""uniqueId"": ""debugMZK07V:debugBIG8ZD"", ""condition"": 0, ""counterbalance"": 0}"
debugMZK07V:debugBIG8ZD,5,1579830150483,"{""rt"": null, ""stimulus"": """", ""key_press"": null, ""test_part"": ""training"", ""next_elem"": ""A"", ""trial_type"": ""html-keyboard-response"", ""trial_index"": 5, ""time_elapsed"": 6051, ""internal_node_id"": ""0.0-3.0-0.0-0.2"", ""uniqueId"": ""debugMZK07V:debugBIG8ZD"", ""condition"": 0, ""counterbalance"": 0}"
debugMZK07V:debugBIG8ZD,6,1579830152438,"{""rt"": 1953.059999999823, ""responses"": ""{\""Q0\"":5}"", ""question_order"": ""[0]"", ""trial_type"": ""survey-likert"", ""trial_index"": 6, ""time_elapsed"": 8006, ""internal_node_id"": ""0.0-3.0-1.0"", ""uniqueId"": ""debugMZK07V:debugBIG8ZD"", ""condition"": 0, ""counterbalance"": 0}"
debugMZK07V:debugBIG8ZD,7,1579830153749,"{""rt"": 1307.9599999909988, ""responses"": ""{\""Q0\"":\""C\""}"", ""question_order"": ""[0]"", ""trial_type"": ""survey-multi-choice"", ""trial_index"": 7, ""time_elapsed"": 9317, ""internal_node_id"": ""0.0-3.0-2.0"", ""uniqueId"": ""debugMZK07V:debugBIG8ZD"", ""condition"": 0, ""counterbalance"": 0}"
debugMZK07V:debugBIG8ZD,8,1579830154587,"{""rt"": 834.3350000068313, ""stimulus"": ""Correct!"", ""button_pressed"": ""0"", ""trial_type"": ""html-button-response"", ""trial_index"": 8, ""time_elapsed"": 10155, ""internal_node_id"": ""0.0-3.0-3.0"", ""uniqueId"": ""debugMZK07V:debugBIG8ZD"", ""condition"": 0, ""counterbalance"": 0}"
debugMZK07V:debugBIG8ZD,9,1579830155388,"{""rt"": null, ""stimulus"": ""<div style=\""font-size:65px;\"">  <p> </p>A</div>"", ""key_press"": null, ""test_part"": ""training"", ""next_elem"": ""A"", ""trial_type"": ""html-keyboard-response"", ""trial_index"": 9, ""time_elapsed"": 10956, ""internal_node_id"": ""0.0-4.0-0.0-0.0"", ""uniqueId"": ""debugMZK07V:debugBIG8ZD"", ""condition"": 0, ""counterbalance"": 0}"
debugMZK07V:debugBIG8ZD,10,1579830155992,"{""rt"": 299.7400000022026, ""stimulus"": ""<div style=\""font-size:65px;\"">  <p> </p>A</div>"", ""key_press"": 32, ""test_part"": ""training"", ""next_elem"": ""A"", ""trial_type"": ""html-keyboard-response"", ""trial_index"": 10, ""time_elapsed"": 11560, ""internal_node_id"": ""0.0-4.0-0.0-0.1"", ""uniqueId"": ""debugMZK07V:debugBIG8ZD"", ""condition"": 0, ""counterbalance"": 0}"
debugMZK07V:debugBIG8ZD,11,1579830156295,"{""rt"": null, ""stimulus"": """", ""key_press"": null, ""test_part"": ""training"", ""next_elem"": ""A"", ""trial_type"": ""html-keyboard-response"", ""trial_index"": 11, ""time_elapsed"": 11863, ""internal_node_id"": ""0.0-4.0-0.0-0.2"", ""uniqueId"": ""debugMZK07V:debugBIG8ZD"", ""condition"": 0, ""counterbalance"": 0}"
debugMZK07V:debugBIG8ZD,12,1579830157182,"{""rt"": 885.5699999985518, ""responses"": ""{\""Q0\"":5}"", ""question_order"": ""[0]"", ""trial_type"": ""survey-likert"", ""trial_index"": 12, ""time_elapsed"": 12749, ""internal_node_id"": ""0.0-4.0-1.0"", ""uniqueId"": ""debugMZK07V:debugBIG8ZD"", ""condition"": 0, ""counterbalance"": 0}"
debugMZK07V:debugBIG8ZD,13,1579830158767,"{""rt"": 1582.0499999972526, ""responses"": ""{\""Q0\"":\""I do not know\""}"", ""question_order"": ""[0]"", ""trial_type"": ""survey-multi-choice"", ""trial_index"": 13, ""time_elapsed"": 14335, ""internal_node_id"": ""0.0-4.0-2.0"", ""uniqueId"": ""debugMZK07V:debugBIG8ZD"", ""condition"": 0, ""counterbalance"": 0}"
debugMZK07V:debugBIG8ZD,14,1579830159661,"{""rt"": 890.0750000029802, ""stimulus"": ""Okay, let's move to the next trial"", ""button_pressed"": ""0"", ""trial_type"": ""html-button-response"", ""trial_index"": 14, ""time_elapsed"": 15229, ""internal_node_id"": ""0.0-4.0-3.0"", ""uniqueId"": ""debugMZK07V:debugBIG8ZD"", ""condition"": 0, ""counterbalance"": 0}"
debugMZK07V:debugBIG8ZD,15,1579830160331,"{""rt"": 669.14500000712, ""stimulus"": ""<p> Some sequences may be completely random, like this one </p>(press spacebar you have convinced yourself that the sequence is random)"", ""button_pressed"": ""0"", ""trial_type"": ""html-button-response"", ""trial_index"": 15, ""time_elapsed"": 15899, ""internal_node_id"": ""0.0-5.0"", ""uniqueId"": ""debugMZK07V:debugBIG8ZD"", ""condition"": 0, ""counterbalance"": 0}"
debugMZK07V:debugBIG8ZD,16,1579830161136,"{""rt"": null, ""stimulus"": ""<div style=\""font-size:65px;\"">A</div>"", ""key_press"": null, ""test_part"": ""training"", ""next_elem"": ""B"", ""trial_type"": ""html-keyboard-response"", ""trial_index"": 16, ""time_elapsed"": 16704, ""internal_node_id"": ""0.0-6.0-0.0-0.0"", ""uniqueId"": ""debugMZK07V:debugBIG8ZD"", ""condition"": 0, ""counterbalance"": 0}"
debugMZK07V:debugBIG8ZD,17,1579830161795,"{""rt"": 356.48499999661, ""stimulus"": ""<div style=\""font-size:65px;\"">B</div>"", ""key_press"": 32, ""test_part"": ""training"", ""next_elem"": ""B"", ""trial_type"": ""html-keyboard-response"", ""trial_index"": 17, ""time_elapsed"": 17363, ""internal_node_id"": ""0.0-6.0-0.0-0.1"", ""uniqueId"": ""debugMZK07V:debugBIG8ZD"", ""condition"": 0, ""counterbalance"": 0}"
debugMZK07V:debugBIG8ZD,18,1579830162097,"{""rt"": null, ""stimulus"": """", ""key_press"": null, ""test_part"": ""training"", ""next_elem"": ""C"", ""trial_type"": ""html-keyboard-response"", ""trial_index"": 18, ""time_elapsed"": 17665, ""internal_node_id"": ""0.0-6.0-0.0-0.2"", ""uniqueId"": ""debugMZK07V:debugBIG8ZD"", ""condition"": 0, ""counterbalance"": 0}"
debugMZK07V:debugBIG8ZD,19,1579830162965,"{""rt"": 866.4449999923818, ""responses"": ""{\""Q0\"":6}"", ""question_order"": ""[0]"", ""trial_type"": ""survey-likert"", ""trial_index"": 19, ""time_elapsed"": 18533, ""internal_node_id"": ""0.0-6.0-1.0"", ""uniqueId"": ""debugMZK07V:debugBIG8ZD"", ""condition"": 0, ""counterbalance"": 0}"
debugMZK07V:debugBIG8ZD,20,1579830164753,"{""rt"": 1785.3800000011688, ""responses"": ""{\""Q0\"":\""C\""}"", ""question_order"": ""[0]"", ""trial_type"": ""survey-multi-choice"", ""trial_index"": 20, ""time_elapsed"": 20321, ""internal_node_id"": ""0.0-6.0-2.0"", ""uniqueId"": ""debugMZK07V:debugBIG8ZD"", ""condition"": 0, ""counterbalance"": 0}"
debugMZK07V:debugBIG8ZD,21,1579830165405,"{""rt"": 648.4950000012759, ""stimulus"": ""Incorrect!<p> The correct choice was: B"", ""button_pressed"": ""0"", ""trial_type"": ""html-button-response"", ""trial_index"": 21, ""time_elapsed"": 20973, ""internal_node_id"": ""0.0-6.0-3.0"", ""uniqueId"": ""debugMZK07V:debugBIG8ZD"", ""condition"": 0, ""counterbalance"": 0}"
debugMZK07V:debugBIG8ZD,22,1579830166187,"{""rt"": 781.0400000016671, ""stimulus"": ""<p> You are now ready to proceed with the actual experiment. </p><p>Some sequences will be random, some will not, and others will be somewhere in between </p>"", ""button_pressed"": ""0"", ""trial_type"": ""html-button-response"", ""trial_index"": 22, ""time_elapsed"": 21755, ""internal_node_id"": ""0.0-7.0"", ""uniqueId"": ""debugMZK07V:debugBIG8ZD"", ""condition"": 0, ""counterbalance"": 0}"
debugMZK07V:debugBIG8ZD,23,1579830166990,"{""rt"": null, ""stimulus"": ""<div style=\""font-size:65px;\"">A</div>"", ""key_press"": null, ""test_part"": ""test"", ""next_elem"": ""A"", ""trial_type"": ""html-keyboard-response"", ""trial_index"": 23, ""time_elapsed"": 22558, ""internal_node_id"": ""0.0-8.0-0.0-0.0"", ""uniqueId"": ""debugMZK07V:debugBIG8ZD"", ""condition"": 0, ""counterbalance"": 0}"
debugMZK07V:debugBIG8ZD,24,1579830167576,"{""rt"": 284.5999999990454, ""stimulus"": ""<div style=\""font-size:65px;\"">A</div>"", ""key_press"": 32, ""test_part"": ""test"", ""next_elem"": ""A"", ""trial_type"": ""html-keyboard-response"", ""trial_index"": 24, ""time_elapsed"": 23144, ""internal_node_id"": ""0.0-8.0-0.0-0.1"", ""uniqueId"": ""debugMZK07V:debugBIG8ZD"", ""condition"": 0, ""counterbalance"": 0}"
debugMZK07V:debugBIG8ZD,25,1579830167878,"{""rt"": null, ""stimulus"": """", ""key_press"": null, ""test_part"": ""test"", ""next_elem"": ""A"", ""trial_type"": ""html-keyboard-response"", ""trial_index"": 25, ""time_elapsed"": 23446, ""internal_node_id"": ""0.0-8.0-0.0-0.2"", ""uniqueId"": ""debugMZK07V:debugBIG8ZD"", ""condition"": 0, ""counterbalance"": 0}"
debugMZK07V:debugBIG8ZD,26,1579830168795,"{""rt"": 916.7850000085309, ""responses"": ""{\""Q0\"":4}"", ""question_order"": ""[0]"", ""trial_type"": ""survey-likert"", ""trial_index"": 26, ""time_elapsed"": 24363, ""internal_node_id"": ""0.0-8.0-1.0"", ""uniqueId"": ""debugMZK07V:debugBIG8ZD"", ""condition"": 0, ""counterbalance"": 0}"
debugMZK07V:debugBIG8ZD,27,1579830170037,"{""rt"": 1238.2050000014715, ""responses"": ""{\""Q0\"":\""I do not know\""}"", ""question_order"": ""[0]"", ""trial_type"": ""survey-multi-choice"", ""trial_index"": 27, ""time_elapsed"": 25605, ""internal_node_id"": ""0.0-8.0-2.0"", ""uniqueId"": ""debugMZK07V:debugBIG8ZD"", ""condition"": 0, ""counterbalance"": 0}"
debugMZK07V:debugBIG8ZD,28,1579830170689,"{""rt"": 648.0400000000373, ""stimulus"": ""Okay, let's move to the next trial"", ""button_pressed"": ""0"", ""trial_type"": ""html-button-response"", ""trial_index"": 28, ""time_elapsed"": 26257, ""internal_node_id"": ""0.0-8.0-3.0"", ""uniqueId"": ""debugMZK07V:debugBIG8ZD"", ""condition"": 0, ""counterbalance"": 0}"
debugMZK07V:debugBIG8ZD,29,1579830171494,"{""rt"": null, ""stimulus"": ""<div style=\""font-size:65px;\"">C</div>"", ""key_press"": null, ""test_part"": ""test"", ""next_elem"": ""B"", ""trial_type"": ""html-keyboard-response"", ""trial_index"": 29, ""time_elapsed"": 27062, ""internal_node_id"": ""0.0-9.0-0.0-0.0"", ""uniqueId"": ""debugMZK07V:debugBIG8ZD"", ""condition"": 0, ""counterbalance"": 0}"
debugMZK07V:debugBIG8ZD,30,1579830172107,"{""rt"": 307.8850000019884, ""stimulus"": ""<div style=\""font-size:65px;\"">B</div>"", ""key_press"": 32, ""test_part"": ""test"", ""next_elem"": ""C"", ""trial_type"": ""html-keyboard-response"", ""trial_index"": 30, ""time_elapsed"": 27675, ""internal_node_id"": ""0.0-9.0-0.0-0.1"", ""uniqueId"": ""debugMZK07V:debugBIG8ZD"", ""condition"": 0, ""counterbalance"": 0}"
debugMZK07V:debugBIG8ZD,31,1579830172409,"{""rt"": null, ""stimulus"": """", ""key_press"": null, ""test_part"": ""test"", ""next_elem"": ""A"", ""trial_type"": ""html-keyboard-response"", ""trial_index"": 31, ""time_elapsed"": 27977, ""internal_node_id"": ""0.0-9.0-0.0-0.2"", ""uniqueId"": ""debugMZK07V:debugBIG8ZD"", ""condition"": 0, ""counterbalance"": 0}"
debugMZK07V:debugBIG8ZD,32,1579830173541,"{""rt"": 1131.389999995008, ""responses"": ""{\""Q0\"":1}"", ""question_order"": ""[0]"", ""trial_type"": ""survey-likert"", ""trial_index"": 32, ""time_elapsed"": 29109, ""internal_node_id"": ""0.0-9.0-1.0"", ""uniqueId"": ""debugMZK07V:debugBIG8ZD"", ""condition"": 0, ""counterbalance"": 0}"
debugMZK07V:debugBIG8ZD,33,1579830175513,"{""rt"": 1968.3999999979278, ""responses"": ""{\""Q0\"":\""B\""}"", ""question_order"": ""[0]"", ""trial_type"": ""survey-multi-choice"", ""trial_index"": 33, ""time_elapsed"": 31081, ""internal_node_id"": ""0.0-9.0-2.0"", ""uniqueId"": ""debugMZK07V:debugBIG8ZD"", ""condition"": 0, ""counterbalance"": 0}"
debugMZK07V:debugBIG8ZD,34,1579830176208,"{""rt"": 690.0849999947241, ""stimulus"": ""Incorrect!<p> The correct choice was: C"", ""button_pressed"": ""0"", ""trial_type"": ""html-button-response"", ""trial_index"": 34, ""time_elapsed"": 31775, ""internal_node_id"": ""0.0-9.0-3.0"", ""uniqueId"": ""debugMZK07V:debugBIG8ZD"", ""condition"": 0, ""counterbalance"": 0}"
debugMZK07V:debugBIG8ZD,35,1579830177013,"{""rt"": null, ""stimulus"": ""<div style=\""font-size:65px;\"">A</div>"", ""key_press"": null, ""test_part"": ""test"", ""next_elem"": ""A"", ""trial_type"": ""html-keyboard-response"", ""trial_index"": 35, ""time_elapsed"": 32581, ""internal_node_id"": ""0.0-10.0-0.0-0.0"", ""uniqueId"": ""debugMZK07V:debugBIG8ZD"", ""condition"": 0, ""counterbalance"": 0}"
debugMZK07V:debugBIG8ZD,36,1579830178118,"{""rt"": null, ""stimulus"": ""<div style=\""font-size:65px;\"">A</div>"", ""key_press"": null, ""test_part"": ""test"", ""next_elem"": ""A"", ""trial_type"": ""html-keyboard-response"", ""trial_index"": 36, ""time_elapsed"": 33686, ""internal_node_id"": ""0.0-10.0-0.0-0.1"", ""uniqueId"": ""debugMZK07V:debugBIG8ZD"", ""condition"": 0, ""counterbalance"": 0}"
debugMZK07V:debugBIG8ZD,37,1579830179223,"{""rt"": null, ""stimulus"": ""<div style=\""font-size:65px;\"">A</div>"", ""key_press"": null, ""test_part"": ""test"", ""next_elem"": ""C"", ""trial_type"": ""html-keyboard-response"", ""trial_index"": 37, ""time_elapsed"": 34791, ""internal_node_id"": ""0.0-10.0-0.0-0.2"", ""uniqueId"": ""debugMZK07V:debugBIG8ZD"", ""condition"": 0, ""counterbalance"": 0}"
debugMZK07V:debugBIG8ZD,38,1579830180042,"{""rt"": 516.9000000023516, ""stimulus"": ""<div style=\""font-size:65px;\"">C</div>"", ""key_press"": 32, ""test_part"": ""test"", ""next_elem"": ""B"", ""trial_type"": ""html-keyboard-response"", ""trial_index"": 38, ""time_elapsed"": 35610, ""internal_node_id"": ""0.0-10.0-0.0-0.3"", ""uniqueId"": ""debugMZK07V:debugBIG8ZD"", ""condition"": 0, ""counterbalance"": 0}"
debugMZK07V:debugBIG8ZD,39,1579830180345,"{""rt"": null, ""stimulus"": """", ""key_press"": null, ""test_part"": ""test"", ""next_elem"": ""A"", ""trial_type"": ""html-keyboard-response"", ""trial_index"": 39, ""time_elapsed"": 35913, ""internal_node_id"": ""0.0-10.0-0.0-0.4"", ""uniqueId"": ""debugMZK07V:debugBIG8ZD"", ""condition"": 0, ""counterbalance"": 0}"
debugMZK07V:debugBIG8ZD,40,1579830181457,"{""rt"": 1109.4849999935832, ""responses"": ""{\""Q0\"":1}"", ""question_order"": ""[0]"", ""trial_type"": ""survey-likert"", ""trial_index"": 40, ""time_elapsed"": 37025, ""internal_node_id"": ""0.0-10.0-1.0"", ""uniqueId"": ""debugMZK07V:debugBIG8ZD"", ""condition"": 0, ""counterbalance"": 0}"
debugMZK07V:debugBIG8ZD,41,1579830182799,"{""rt"": 1338.2850000052713, ""responses"": ""{\""Q0\"":\""B\""}"", ""question_order"": ""[0]"", ""trial_type"": ""survey-multi-choice"", ""trial_index"": 41, ""time_elapsed"": 38367, ""internal_node_id"": ""0.0-10.0-2.0"", ""uniqueId"": ""debugMZK07V:debugBIG8ZD"", ""condition"": 0, ""counterbalance"": 0}"
debugMZK07V:debugBIG8ZD,42,1579830183396,"{""rt"": 593.75, ""stimulus"": ""Correct!"", ""button_pressed"": ""0"", ""trial_type"": ""html-button-response"", ""trial_index"": 42, ""time_elapsed"": 38964, ""internal_node_id"": ""0.0-10.0-3.0"", ""uniqueId"": ""debugMZK07V:debugBIG8ZD"", ""condition"": 0, ""counterbalance"": 0}"
debugMZK07V:debugBIG8ZD,43,1579830184197,"{""rt"": null, ""stimulus"": ""<div style=\""font-size:65px;\"">C</div>"", ""key_press"": null, ""test_part"": ""test"", ""next_elem"": ""A"", ""trial_type"": ""html-keyboard-response"", ""trial_index"": 43, ""time_elapsed"": 39765, ""internal_node_id"": ""0.0-11.0-0.0-0.0"", ""uniqueId"": ""debugMZK07V:debugBIG8ZD"", ""condition"": 0, ""counterbalance"": 0}"
debugMZK07V:debugBIG8ZD,44,1579830185302,"{""rt"": null, ""stimulus"": ""<div style=\""font-size:65px;\"">A</div>"", ""key_press"": null, ""test_part"": ""test"", ""next_elem"": ""B"", ""trial_type"": ""html-keyboard-response"", ""trial_index"": 44, ""time_elapsed"": 40870, ""internal_node_id"": ""0.0-11.0-0.0-0.1"", ""uniqueId"": ""debugMZK07V:debugBIG8ZD"", ""condition"": 0, ""counterbalance"": 0}"
debugMZK07V:debugBIG8ZD,45,1579830186412,"{""rt"": null, ""stimulus"": ""<div style=\""font-size:65px;\"">B</div>"", ""key_press"": null, ""test_part"": ""test"", ""next_elem"": ""A"", ""trial_type"": ""html-keyboard-response"", ""trial_index"": 45, ""time_elapsed"": 41980, ""internal_node_id"": ""0.0-11.0-0.0-0.2"", ""uniqueId"": ""debugMZK07V:debugBIG8ZD"", ""condition"": 0, ""counterbalance"": 0}"
debugMZK07V:debugBIG8ZD,46,1579830187517,"{""rt"": null, ""stimulus"": ""<div style=\""font-size:65px;\"">A</div>"", ""key_press"": null, ""test_part"": ""test"", ""next_elem"": ""B"", ""trial_type"": ""html-keyboard-response"", ""trial_index"": 46, ""time_elapsed"": 43085, ""internal_node_id"": ""0.0-11.0-0.0-0.3"", ""uniqueId"": ""debugMZK07V:debugBIG8ZD"", ""condition"": 0, ""counterbalance"": 0}"
debugMZK07V:debugBIG8ZD,47,1579830188108,"{""rt"": 288.8449999882141, ""stimulus"": ""<div style=\""font-size:65px;\"">B</div>"", ""key_press"": 32, ""test_part"": ""test"", ""next_elem"": ""C"", ""trial_type"": ""html-keyboard-response"", ""trial_index"": 47, ""time_elapsed"": 43676, ""internal_node_id"": ""0.0-11.0-0.0-0.4"", ""uniqueId"": ""debugMZK07V:debugBIG8ZD"", ""condition"": 0, ""counterbalance"": 0}"
debugMZK07V:debugBIG8ZD,48,1579830190755,"{""rt"": 2344.2550000036135, ""responses"": ""{\""Q0\"":4}"", ""question_order"": ""[0]"", ""trial_type"": ""survey-likert"", ""trial_index"": 48, ""time_elapsed"": 46323, ""internal_node_id"": ""0.0-11.0-1.0"", ""uniqueId"": ""debugMZK07V:debugBIG8ZD"", ""condition"": 0, ""counterbalance"": 0}"
debugMZK07V:debugBIG8ZD,49,1579830192107,"{""rt"": 1347.909999996773, ""responses"": ""{\""Q0\"":\""A\""}"", ""question_order"": ""[0]"", ""trial_type"": ""survey-multi-choice"", ""trial_index"": 49, ""time_elapsed"": 47675, ""internal_node_id"": ""0.0-11.0-2.0"", ""uniqueId"": ""debugMZK07V:debugBIG8ZD"", ""condition"": 0, ""counterbalance"": 0}"
debugMZK07V:debugBIG8ZD,50,1579830192719,"{""rt"": 608.3199999993667, ""stimulus"": ""Incorrect!<p> The correct choice was: B"", ""button_pressed"": ""0"", ""trial_type"": ""html-button-response"", ""trial_index"": 50, ""time_elapsed"": 48287, ""internal_node_id"": ""0.0-11.0-3.0"", ""uniqueId"": ""debugMZK07V:debugBIG8ZD"", ""condition"": 0, ""counterbalance"": 0}"
debugMZK07V:debugBIG8ZD,51,1579830193523,"{""rt"": null, ""stimulus"": ""<div style=\""font-size:65px;\"">C</div>"", ""key_press"": null, ""test_part"": ""test"", ""next_elem"": ""C"", ""trial_type"": ""html-keyboard-response"", ""trial_index"": 51, ""time_elapsed"": 49091, ""internal_node_id"": ""0.0-12.0-0.0-0.0"", ""uniqueId"": ""debugMZK07V:debugBIG8ZD"", ""condition"": 0, ""counterbalance"": 0}"
debugMZK07V:debugBIG8ZD,52,1579830194626,"{""rt"": null, ""stimulus"": ""<div style=\""font-size:65px;\"">C</div>"", ""key_press"": null, ""test_part"": ""test"", ""next_elem"": ""C"", ""trial_type"": ""html-keyboard-response"", ""trial_index"": 52, ""time_elapsed"": 50194, ""internal_node_id"": ""0.0-12.0-0.0-0.1"", ""uniqueId"": ""debugMZK07V:debugBIG8ZD"", ""condition"": 0, ""counterbalance"": 0}"
debugMZK07V:debugBIG8ZD,53,1579830195735,"{""rt"": null, ""stimulus"": ""<div style=\""font-size:65px;\"">C</div>"", ""key_press"": null, ""test_part"": ""test"", ""next_elem"": ""B"", ""trial_type"": ""html-keyboard-response"", ""trial_index"": 53, ""time_elapsed"": 51303, ""internal_node_id"": ""0.0-12.0-0.0-0.2"", ""uniqueId"": ""debugMZK07V:debugBIG8ZD"", ""condition"": 0, ""counterbalance"": 0}"
debugMZK07V:debugBIG8ZD,54,1579830196337,"{""rt"": 297.7450000034878, ""stimulus"": ""<div style=\""font-size:65px;\"">B</div>"", ""key_press"": 32, ""test_part"": ""test"", ""next_elem"": ""B"", ""trial_type"": ""html-keyboard-response"", ""trial_index"": 54, ""time_elapsed"": 51905, ""internal_node_id"": ""0.0-12.0-0.0-0.3"", ""uniqueId"": ""debugMZK07V:debugBIG8ZD"", ""condition"": 0, ""counterbalance"": 0}"
debugMZK07V:debugBIG8ZD,55,1579830196642,"{""rt"": null, ""stimulus"": """", ""key_press"": null, ""test_part"": ""test"", ""next_elem"": "" "", ""trial_type"": ""html-keyboard-response"", ""trial_index"": 55, ""time_elapsed"": 52210, ""internal_node_id"": ""0.0-12.0-0.0-0.4"", ""uniqueId"": ""debugMZK07V:debugBIG8ZD"", ""condition"": 0, ""counterbalance"": 0}"
debugMZK07V:debugBIG8ZD,56,1579830197690,"{""rt"": 1046.730000001844, ""responses"": ""{\""Q0\"":5}"", ""question_order"": ""[0]"", ""trial_type"": ""survey-likert"", ""trial_index"": 56, ""time_elapsed"": 53258, ""internal_node_id"": ""0.0-12.0-1.0"", ""uniqueId"": ""debugMZK07V:debugBIG8ZD"", ""condition"": 0, ""counterbalance"": 0}"
debugMZK07V:debugBIG8ZD,57,1579830199251,"{""rt"": 1557.2099999990314, ""responses"": ""{\""Q0\"":\""B\""}"", ""question_order"": ""[0]"", ""trial_type"": ""survey-multi-choice"", ""trial_index"": 57, ""time_elapsed"": 54819, ""internal_node_id"": ""0.0-12.0-2.0"", ""uniqueId"": ""debugMZK07V:debugBIG8ZD"", ""condition"": 0, ""counterbalance"": 0}"
debugMZK07V:debugBIG8ZD,58,1579830199847,"{""rt"": 592.255000010482, ""stimulus"": ""Correct!"", ""button_pressed"": ""0"", ""trial_type"": ""html-button-response"", ""trial_index"": 58, ""time_elapsed"": 55415, ""internal_node_id"": ""0.0-12.0-3.0"", ""uniqueId"": ""debugMZK07V:debugBIG8ZD"", ""condition"": 0, ""counterbalance"": 0}"
debugMZK07V:debugBIG8ZD,59,1579830200648,"{""rt"": null, ""stimulus"": ""<div style=\""font-size:65px;\"">B</div>"", ""key_press"": null, ""test_part"": ""test"", ""next_elem"": ""B"", ""trial_type"": ""html-keyboard-response"", ""trial_index"": 59, ""time_elapsed"": 56216, ""internal_node_id"": ""0.0-13.0-0.0-0.0"", ""uniqueId"": ""debugMZK07V:debugBIG8ZD"", ""condition"": 0, ""counterbalance"": 0}"
debugMZK07V:debugBIG8ZD,60,1579830201755,"{""rt"": null, ""stimulus"": ""<div style=\""font-size:65px;\"">B</div>"", ""key_press"": null, ""test_part"": ""test"", ""next_elem"": ""B"", ""trial_type"": ""html-keyboard-response"", ""trial_index"": 60, ""time_elapsed"": 57322, ""internal_node_id"": ""0.0-13.0-0.0-0.1"", ""uniqueId"": ""debugMZK07V:debugBIG8ZD"", ""condition"": 0, ""counterbalance"": 0}"
debugMZK07V:debugBIG8ZD,61,1579830202858,"{""rt"": null, ""stimulus"": ""<div style=\""font-size:65px;\"">B</div>"", ""key_press"": null, ""test_part"": ""test"", ""next_elem"": ""C"", ""trial_type"": ""html-keyboard-response"", ""trial_index"": 61, ""time_elapsed"": 58426, ""internal_node_id"": ""0.0-13.0-0.0-0.2"", ""uniqueId"": ""debugMZK07V:debugBIG8ZD"", ""condition"": 0, ""counterbalance"": 0}"
debugMZK07V:debugBIG8ZD,62,1579830203965,"{""rt"": null, ""stimulus"": ""<div style=\""font-size:65px;\"">C</div>"", ""key_press"": null, ""test_part"": ""test"", ""next_elem"": "" "", ""trial_type"": ""html-keyboard-response"", ""trial_index"": 62, ""time_elapsed"": 59533, ""internal_node_id"": ""0.0-13.0-0.0-0.3"", ""uniqueId"": ""debugMZK07V:debugBIG8ZD"", ""condition"": 0, ""counterbalance"": 0}"
debugMZK07V:debugBIG8ZD,63,1579830205068,"{""rt"": null, ""stimulus"": ""<div style=\""font-size:65px;\""> </div>"", ""key_press"": null, ""test_part"": ""test"", ""next_elem"": "" "", ""trial_type"": ""html-keyboard-response"", ""trial_index"": 63, ""time_elapsed"": 60635, ""internal_node_id"": ""0.0-13.0-0.0-0.4"", ""uniqueId"": ""debugMZK07V:debugBIG8ZD"", ""condition"": 0, ""counterbalance"": 0}"
debugMZK07V:debugBIG8ZD,64,1579830206752,"{""rt"": 1380.6099999928847, ""responses"": ""{\""Q0\"":6}"", ""question_order"": ""[0]"", ""trial_type"": ""survey-likert"", ""trial_index"": 64, ""time_elapsed"": 62320, ""internal_node_id"": ""0.0-13.0-1.0"", ""uniqueId"": ""debugMZK07V:debugBIG8ZD"", ""condition"": 0, ""counterbalance"": 0}"
debugMZK07V:debugBIG8ZD,65,1579830208240,"{""rt"": 1483.42999999295, ""responses"": ""{\""Q0\"":\""A\""}"", ""question_order"": ""[0]"", ""trial_type"": ""survey-multi-choice"", ""trial_index"": 65, ""time_elapsed"": 63808, ""internal_node_id"": ""0.0-13.0-2.0"", ""uniqueId"": ""debugMZK07V:debugBIG8ZD"", ""condition"": 0, ""counterbalance"": 0}"
debugMZK07V:debugBIG8ZD,66,1579830208887,"{""rt"": 642.0650000072783, ""stimulus"": ""Incorrect!<p> The correct choice was:  "", ""button_pressed"": ""0"", ""trial_type"": ""html-button-response"", ""trial_index"": 66, ""time_elapsed"": 64455, ""internal_node_id"": ""0.0-13.0-3.0"", ""uniqueId"": ""debugMZK07V:debugBIG8ZD"", ""condition"": 0, ""counterbalance"": 0}"
debugXJBA6B:debugVZBBZS,0,1579888102209,"{""rt"": 10304.869999992661, ""stimulus"": ""<p>This session will last for 15min.</p><p> In each trial, you will see some symbols appearing one-by-one. </p><p> You will be asked to stop the sequence whenever you can answer some questions (more on this later). </p><p> Each sequence is independent from one another. </p><p> <br /> Let us practice before we move on to the actual experiment: </p>"", ""button_pressed"": ""0"", ""trial_type"": ""html-button-response"", ""trial_index"": 0, ""time_elapsed"": 10324, ""internal_node_id"": ""0.0-0.0"", ""uniqueId"": ""debugXJBA6B:debugVZBBZS"", ""condition"": 0, ""counterbalance"": 0}"
debugXJBA6B:debugVZBBZS,1,1579888105474,"{""rt"": 2263.714999993681, ""stimulus"": ""Some sequences will be highly predictable, like these </p> (press spacebar when you figured out the pattern):"", ""button_pressed"": ""0"", ""trial_type"": ""html-button-response"", ""trial_index"": 1, ""time_elapsed"": 13590, ""internal_node_id"": ""0.0-1.0"", ""uniqueId"": ""debugXJBA6B:debugVZBBZS"", ""condition"": 0, ""counterbalance"": 0}"
debugXJBA6B:debugVZBBZS,2,1579888107280,"{""rt"": null, ""stimulus"": ""<div style=\""font-size:65px;\"">  <p> </p>A</div>"", ""key_press"": null, ""test_part"": ""training"", ""next_elem"": ""B"", ""trial_type"": ""html-keyboard-response"", ""trial_index"": 2, ""time_elapsed"": 15396, ""internal_node_id"": ""0.0-2.0-0.0-0.0"", ""uniqueId"": ""debugXJBA6B:debugVZBBZS"", ""condition"": 0, ""counterbalance"": 0}"
debugXJBA6B:debugVZBBZS,3,1579888108386,"{""rt"": null, ""stimulus"": ""<div style=\""font-size:65px;\"">  <p> </p>B</div>"", ""key_press"": null, ""test_part"": ""training"", ""next_elem"": ""C"", ""trial_type"": ""html-keyboard-response"", ""trial_index"": 3, ""time_elapsed"": 16502, ""internal_node_id"": ""0.0-2.0-0.0-0.1"", ""uniqueId"": ""debugXJBA6B:debugVZBBZS"", ""condition"": 0, ""counterbalance"": 0}"
debugXJBA6B:debugVZBBZS,4,1579888109491,"{""rt"": null, ""stimulus"": ""<div style=\""font-size:65px;\"">  <p> </p>C</div>"", ""key_press"": null, ""test_part"": ""training"", ""next_elem"": ""A"", ""trial_type"": ""html-keyboard-response"", ""trial_index"": 4, ""time_elapsed"": 17607, ""internal_node_id"": ""0.0-2.0-0.0-0.2"", ""uniqueId"": ""debugXJBA6B:debugVZBBZS"", ""condition"": 0, ""counterbalance"": 0}"
debugXJBA6B:debugVZBBZS,5,1579888110140,"{""rt"": 348.1399999873247, ""stimulus"": ""<div style=\""font-size:65px;\"">  <p> </p>A</div>"", ""key_press"": 32, ""test_part"": ""training"", ""next_elem"": ""B"", ""trial_type"": ""html-keyboard-response"", ""trial_index"": 5, ""time_elapsed"": 18256, ""internal_node_id"": ""0.0-2.0-0.0-0.3"", ""uniqueId"": ""debugXJBA6B:debugVZBBZS"", ""condition"": 0, ""counterbalance"": 0}"
debugXJBA6B:debugVZBBZS,6,1579888110447,"{""rt"": null, ""stimulus"": """", ""key_press"": null, ""test_part"": ""training"", ""next_elem"": ""C"", ""trial_type"": ""html-keyboard-response"", ""trial_index"": 6, ""time_elapsed"": 18563, ""internal_node_id"": ""0.0-2.0-0.0-0.4"", ""uniqueId"": ""debugXJBA6B:debugVZBBZS"", ""condition"": 0, ""counterbalance"": 0}"
debugXJBA6B:debugVZBBZS,7,1579888111806,"{""rt"": 1357.625000004191, ""responses"": ""{\""Q0\"":4}"", ""question_order"": ""[0]"", ""trial_type"": ""survey-likert"", ""trial_index"": 7, ""time_elapsed"": 19922, ""internal_node_id"": ""0.0-2.0-1.0"", ""uniqueId"": ""debugXJBA6B:debugVZBBZS"", ""condition"": 0, ""counterbalance"": 0}"
debugXJBA6B:debugVZBBZS,8,1579888113054,"{""rt"": 1244.4699999905424, ""responses"": ""{\""Q0\"":\""B\""}"", ""question_order"": ""[0]"", ""trial_type"": ""survey-multi-choice"", ""trial_index"": 8, ""time_elapsed"": 21170, ""internal_node_id"": ""0.0-2.0-2.0"", ""uniqueId"": ""debugXJBA6B:debugVZBBZS"", ""condition"": 0, ""counterbalance"": 0}"
debugXJBA6B:debugVZBBZS,9,1579888113835,"{""rt"": 778.1649999960791, ""stimulus"": ""Correct!"", ""button_pressed"": ""0"", ""trial_type"": ""html-button-response"", ""trial_index"": 9, ""time_elapsed"": 21951, ""internal_node_id"": ""0.0-2.0-3.0"", ""uniqueId"": ""debugXJBA6B:debugVZBBZS"", ""condition"": 0, ""counterbalance"": 0}"
debugXJBA6B:debugVZBBZS,10,1579888114639,"{""rt"": null, ""stimulus"": ""<div style=\""font-size:65px;\"">  <p> </p>A</div>"", ""key_press"": null, ""test_part"": ""training"", ""next_elem"": ""A"", ""trial_type"": ""html-keyboard-response"", ""trial_index"": 10, ""time_elapsed"": 22755, ""internal_node_id"": ""0.0-3.0-0.0-0.0"", ""uniqueId"": ""debugXJBA6B:debugVZBBZS"", ""condition"": 0, ""counterbalance"": 0}"
debugXJBA6B:debugVZBBZS,11,1579888115743,"{""rt"": null, ""stimulus"": ""<div style=\""font-size:65px;\"">  <p> </p>A</div>"", ""key_press"": null, ""test_part"": ""training"", ""next_elem"": ""A"", ""trial_type"": ""html-keyboard-response"", ""trial_index"": 11, ""time_elapsed"": 23859, ""internal_node_id"": ""0.0-3.0-0.0-0.1"", ""uniqueId"": ""debugXJBA6B:debugVZBBZS"", ""condition"": 0, ""counterbalance"": 0}"
debugXJBA6B:debugVZBBZS,12,1579888116407,"{""rt"": 359.58500001288485, ""stimulus"": ""<div style=\""font-size:65px;\"">  <p> </p>A</div>"", ""key_press"": 32, ""test_part"": ""training"", ""next_elem"": ""A"", ""trial_type"": ""html-keyboard-response"", ""trial_index"": 12, ""time_elapsed"": 24523, ""internal_node_id"": ""0.0-3.0-0.0-0.2"", ""uniqueId"": ""debugXJBA6B:debugVZBBZS"", ""condition"": 0, ""counterbalance"": 0}"
debugXJBA6B:debugVZBBZS,13,1579888116710,"{""rt"": null, ""stimulus"": """", ""key_press"": null, ""test_part"": ""training"", ""next_elem"": ""A"", ""trial_type"": ""html-keyboard-response"", ""trial_index"": 13, ""time_elapsed"": 24826, ""internal_node_id"": ""0.0-3.0-0.0-0.3"", ""uniqueId"": ""debugXJBA6B:debugVZBBZS"", ""condition"": 0, ""counterbalance"": 0}"
debugXJBA6B:debugVZBBZS,14,1579888117811,"{""rt"": 1100.7099999987986, ""responses"": ""{\""Q0\"":5}"", ""question_order"": ""[0]"", ""trial_type"": ""survey-likert"", ""trial_index"": 14, ""time_elapsed"": 25927, ""internal_node_id"": ""0.0-3.0-1.0"", ""uniqueId"": ""debugXJBA6B:debugVZBBZS"", ""condition"": 0, ""counterbalance"": 0}"
debugXJBA6B:debugVZBBZS,15,1579888119198,"{""rt"": 1383.190000007744, ""responses"": ""{\""Q0\"":\""A\""}"", ""question_order"": ""[0]"", ""trial_type"": ""survey-multi-choice"", ""trial_index"": 15, ""time_elapsed"": 27314, ""internal_node_id"": ""0.0-3.0-2.0"", ""uniqueId"": ""debugXJBA6B:debugVZBBZS"", ""condition"": 0, ""counterbalance"": 0}"
debugXJBA6B:debugVZBBZS,16,1579888120044,"{""rt"": 841.8450000026496, ""stimulus"": ""Correct!"", ""button_pressed"": ""0"", ""trial_type"": ""html-button-response"", ""trial_index"": 16, ""time_elapsed"": 28159, ""internal_node_id"": ""0.0-3.0-3.0"", ""uniqueId"": ""debugXJBA6B:debugVZBBZS"", ""condition"": 0, ""counterbalance"": 0}"
debugXJBA6B:debugVZBBZS,17,1579888126317,"{""rt"": 6272.559999997611, ""stimulus"": ""<p> Some sequences may be completely random, like this one </p>(press spacebar you have convinced yourself that the sequence is random)"", ""button_pressed"": ""0"", ""trial_type"": ""html-button-response"", ""trial_index"": 17, ""time_elapsed"": 34433, ""internal_node_id"": ""0.0-4.0"", ""uniqueId"": ""debugXJBA6B:debugVZBBZS"", ""condition"": 0, ""counterbalance"": 0}"
debugXJBA6B:debugVZBBZS,18,1579888126902,"{""rt"": 582.5449999974808, ""stimulus"": ""<div style=\""font-size:65px;\"">A</div>"", ""key_press"": 32, ""test_part"": ""training"", ""next_elem"": ""B"", ""trial_type"": ""html-keyboard-response"", ""trial_index"": 18, ""time_elapsed"": 35018, ""internal_node_id"": ""0.0-5.0-0.0-0.0"", ""uniqueId"": ""debugXJBA6B:debugVZBBZS"", ""condition"": 0, ""counterbalance"": 0}"
debugXJBA6B:debugVZBBZS,19,1579888127209,"{""rt"": null, ""stimulus"": """", ""key_press"": null, ""test_part"": ""training"", ""next_elem"": ""B"", ""trial_type"": ""html-keyboard-response"", ""trial_index"": 19, ""time_elapsed"": 35325, ""internal_node_id"": ""0.0-5.0-0.0-0.1"", ""uniqueId"": ""debugXJBA6B:debugVZBBZS"", ""condition"": 0, ""counterbalance"": 0}"
debugXJBA6B:debugVZBBZS,20,1579888129112,"{""rt"": 1900.9550000046147, ""responses"": ""{\""Q0\"":6}"", ""question_order"": ""[0]"", ""trial_type"": ""survey-likert"", ""trial_index"": 20, ""time_elapsed"": 37228, ""internal_node_id"": ""0.0-5.0-1.0"", ""uniqueId"": ""debugXJBA6B:debugVZBBZS"", ""condition"": 0, ""counterbalance"": 0}"
debugXJBA6B:debugVZBBZS,21,1579888144533,"{""rt"": 15416.414999999688, ""responses"": ""{\""Q0\"":\""I do not know\""}"", ""question_order"": ""[0]"", ""trial_type"": ""survey-multi-choice"", ""trial_index"": 21, ""time_elapsed"": 52649, ""internal_node_id"": ""0.0-5.0-2.0"", ""uniqueId"": ""debugXJBA6B:debugVZBBZS"", ""condition"": 0, ""counterbalance"": 0}"
debugXJBA6B:debugVZBBZS,22,1579888147391,"{""rt"": 2851.8649999896297, ""stimulus"": ""Okay, let's move to the next trial"", ""button_pressed"": ""0"", ""trial_type"": ""html-button-response"", ""trial_index"": 22, ""time_elapsed"": 55507, ""internal_node_id"": ""0.0-5.0-3.0"", ""uniqueId"": ""debugXJBA6B:debugVZBBZS"", ""condition"": 0, ""counterbalance"": 0}"
debugXJBA6B:debugVZBBZS,23,1579888171947,"{""rt"": 24555.209999991348, ""stimulus"": ""<p> You are now ready to proceed with the actual experiment. </p><p>Some sequences will be random, some will not, and others will be somewhere in between </p>"", ""button_pressed"": ""0"", ""trial_type"": ""html-button-response"", ""trial_index"": 23, ""time_elapsed"": 80063, ""internal_node_id"": ""0.0-6.0"", ""uniqueId"": ""debugXJBA6B:debugVZBBZS"", ""condition"": 0, ""counterbalance"": 0}"
debugXJBA6B:debugVZBBZS,24,1579888172754,"{""rt"": null, ""stimulus"": ""<div style=\""font-size:65px;\"">A</div>"", ""key_press"": null, ""test_part"": ""test"", ""next_elem"": ""A"", ""trial_type"": ""html-keyboard-response"", ""trial_index"": 24, ""time_elapsed"": 80870, ""internal_node_id"": ""0.0-7.0-0.0-0.0"", ""uniqueId"": ""debugXJBA6B:debugVZBBZS"", ""condition"": 0, ""counterbalance"": 0}"
debugXJBA6B:debugVZBBZS,25,1579888173860,"{""rt"": null, ""stimulus"": ""<div style=\""font-size:65px;\"">A</div>"", ""key_press"": null, ""test_part"": ""test"", ""next_elem"": ""A"", ""trial_type"": ""html-keyboard-response"", ""trial_index"": 25, ""time_elapsed"": 81976, ""internal_node_id"": ""0.0-7.0-0.0-0.1"", ""uniqueId"": ""debugXJBA6B:debugVZBBZS"", ""condition"": 0, ""counterbalance"": 0}"
debugXJBA6B:debugVZBBZS,26,1579888174969,"{""rt"": null, ""stimulus"": ""<div style=\""font-size:65px;\"">A</div>"", ""key_press"": null, ""test_part"": ""test"", ""next_elem"": ""A"", ""trial_type"": ""html-keyboard-response"", ""trial_index"": 26, ""time_elapsed"": 83085, ""internal_node_id"": ""0.0-7.0-0.0-0.2"", ""uniqueId"": ""debugXJBA6B:debugVZBBZS"", ""condition"": 0, ""counterbalance"": 0}"
debugXJBA6B:debugVZBBZS,27,1579888176075,"{""rt"": null, ""stimulus"": ""<div style=\""font-size:65px;\"">A</div>"", ""key_press"": null, ""test_part"": ""test"", ""next_elem"": "" "", ""trial_type"": ""html-keyboard-response"", ""trial_index"": 27, ""time_elapsed"": 84191, ""internal_node_id"": ""0.0-7.0-0.0-0.3"", ""uniqueId"": ""debugXJBA6B:debugVZBBZS"", ""condition"": 0, ""counterbalance"": 0}"
debugXJBA6B:debugVZBBZS,28,1579888177179,"{""rt"": null, ""stimulus"": ""<div style=\""font-size:65px;\""> </div>"", ""key_press"": null, ""test_part"": ""test"", ""next_elem"": "" "", ""trial_type"": ""html-keyboard-response"", ""trial_index"": 28, ""time_elapsed"": 85295, ""internal_node_id"": ""0.0-7.0-0.0-0.4"", ""uniqueId"": ""debugXJBA6B:debugVZBBZS"", ""condition"": 0, ""counterbalance"": 0}"
debugXJBA6B:debugVZBBZS,29,1579888179501,"{""rt"": 2017.8699999960372, ""responses"": ""{\""Q0\"":5}"", ""question_order"": ""[0]"", ""trial_type"": ""survey-likert"", ""trial_index"": 29, ""time_elapsed"": 87617, ""internal_node_id"": ""0.0-7.0-1.0"", ""uniqueId"": ""debugXJBA6B:debugVZBBZS"", ""condition"": 0, ""counterbalance"": 0}"
debugXJBA6B:debugVZBBZS,30,1579888183181,"{""rt"": 3674.5650000084424, ""responses"": ""{\""Q0\"":\""C\""}"", ""question_order"": ""[0]"", ""trial_type"": ""survey-multi-choice"", ""trial_index"": 30, ""time_elapsed"": 91297, ""internal_node_id"": ""0.0-7.0-2.0"", ""uniqueId"": ""debugXJBA6B:debugVZBBZS"", ""condition"": 0, ""counterbalance"": 0}"
debugXJBA6B:debugVZBBZS,31,1579888190602,"{""rt"": 7416.015000009793, ""stimulus"": ""Incorrect!<p> The correct choice was:  "", ""button_pressed"": ""0"", ""trial_type"": ""html-button-response"", ""trial_index"": 31, ""time_elapsed"": 98718, ""internal_node_id"": ""0.0-7.0-3.0"", ""uniqueId"": ""debugXJBA6B:debugVZBBZS"", ""condition"": 0, ""counterbalance"": 0}"
debugXJBA6B:debugVZBBZS,32,1579888191404,"{""rt"": null, ""stimulus"": ""<div style=\""font-size:65px;\"">A</div>"", ""key_press"": null, ""test_part"": ""test"", ""next_elem"": ""A"", ""trial_type"": ""html-keyboard-response"", ""trial_index"": 32, ""time_elapsed"": 99520, ""internal_node_id"": ""0.0-8.0-0.0-0.0"", ""uniqueId"": ""debugXJBA6B:debugVZBBZS"", ""condition"": 0, ""counterbalance"": 0}"
debugXJBA6B:debugVZBBZS,33,1579888192512,"{""rt"": null, ""stimulus"": ""<div style=\""font-size:65px;\"">A</div>"", ""key_press"": null, ""test_part"": ""test"", ""next_elem"": ""A"", ""trial_type"": ""html-keyboard-response"", ""trial_index"": 33, ""time_elapsed"": 100628, ""internal_node_id"": ""0.0-8.0-0.0-0.1"", ""uniqueId"": ""debugXJBA6B:debugVZBBZS"", ""condition"": 0, ""counterbalance"": 0}"
debugXJBA6B:debugVZBBZS,34,1579888193617,"{""rt"": null, ""stimulus"": ""<div style=\""font-size:65px;\"">A</div>"", ""key_press"": null, ""test_part"": ""test"", ""next_elem"": ""C"", ""trial_type"": ""html-keyboard-response"", ""trial_index"": 34, ""time_elapsed"": 101733, ""internal_node_id"": ""0.0-8.0-0.0-0.2"", ""uniqueId"": ""debugXJBA6B:debugVZBBZS"", ""condition"": 0, ""counterbalance"": 0}"
debugXJBA6B:debugVZBBZS,35,1579888194202,"{""rt"": 280.0250000000233, ""stimulus"": ""<div style=\""font-size:65px;\"">C</div>"", ""key_press"": 32, ""test_part"": ""test"", ""next_elem"": ""B"", ""trial_type"": ""html-keyboard-response"", ""trial_index"": 35, ""time_elapsed"": 102318, ""internal_node_id"": ""0.0-8.0-0.0-0.3"", ""uniqueId"": ""debugXJBA6B:debugVZBBZS"", ""condition"": 0, ""counterbalance"": 0}"
debugXJBA6B:debugVZBBZS,36,1579888194505,"{""rt"": null, ""stimulus"": """", ""key_press"": null, ""test_part"": ""test"", ""next_elem"": ""A"", ""trial_type"": ""html-keyboard-response"", ""trial_index"": 36, ""time_elapsed"": 102621, ""internal_node_id"": ""0.0-8.0-0.0-0.4"", ""uniqueId"": ""debugXJBA6B:debugVZBBZS"", ""condition"": 0, ""counterbalance"": 0}"
debugXJBA6B:debugVZBBZS,37,1579888196977,"{""rt"": 2470.679999998538, ""responses"": ""{\""Q0\"":1}"", ""question_order"": ""[0]"", ""trial_type"": ""survey-likert"", ""trial_index"": 37, ""time_elapsed"": 105093, ""internal_node_id"": ""0.0-8.0-1.0"", ""uniqueId"": ""debugXJBA6B:debugVZBBZS"", ""condition"": 0, ""counterbalance"": 0}"
debugXJBA6B:debugVZBBZS,38,1579888198353,"{""rt"": 1370.8699999988312, ""responses"": ""{\""Q0\"":\""A\""}"", ""question_order"": ""[0]"", ""trial_type"": ""survey-multi-choice"", ""trial_index"": 38, ""time_elapsed"": 106469, ""internal_node_id"": ""0.0-8.0-2.0"", ""uniqueId"": ""debugXJBA6B:debugVZBBZS"", ""condition"": 0, ""counterbalance"": 0}"
debugXJBA6B:debugVZBBZS,39,1579888206471,"{""rt"": 8111.685000010766, ""stimulus"": ""Incorrect!<p> The correct choice was: B"", ""button_pressed"": ""0"", ""trial_type"": ""html-button-response"", ""trial_index"": 39, ""time_elapsed"": 114587, ""internal_node_id"": ""0.0-8.0-3.0"", ""uniqueId"": ""debugXJBA6B:debugVZBBZS"", ""condition"": 0, ""counterbalance"": 0}"
debugXJBA6B:debugVZBBZS,40,1579888207274,"{""rt"": null, ""stimulus"": ""<div style=\""font-size:65px;\"">B</div>"", ""key_press"": null, ""test_part"": ""test"", ""next_elem"": ""B"", ""trial_type"": ""html-keyboard-response"", ""trial_index"": 40, ""time_elapsed"": 115390, ""internal_node_id"": ""0.0-9.0-0.0-0.0"", ""uniqueId"": ""debugXJBA6B:debugVZBBZS"", ""condition"": 0, ""counterbalance"": 0}"
debugXJBA6B:debugVZBBZS,41,1579888208383,"{""rt"": null, ""stimulus"": ""<div style=\""font-size:65px;\"">B</div>"", ""key_press"": null, ""test_part"": ""test"", ""next_elem"": ""B"", ""trial_type"": ""html-keyboard-response"", ""trial_index"": 41, ""time_elapsed"": 116499, ""internal_node_id"": ""0.0-9.0-0.0-0.1"", ""uniqueId"": ""debugXJBA6B:debugVZBBZS"", ""condition"": 0, ""counterbalance"": 0}"
debugXJBA6B:debugVZBBZS,42,1579888209489,"{""rt"": null, ""stimulus"": ""<div style=\""font-size:65px;\"">B</div>"", ""key_press"": null, ""test_part"": ""test"", ""next_elem"": ""C"", ""trial_type"": ""html-keyboard-response"", ""trial_index"": 42, ""time_elapsed"": 117605, ""internal_node_id"": ""0.0-9.0-0.0-0.2"", ""uniqueId"": ""debugXJBA6B:debugVZBBZS"", ""condition"": 0, ""counterbalance"": 0}"
debugXJBA6B:debugVZBBZS,43,1579888210597,"{""rt"": null, ""stimulus"": ""<div style=\""font-size:65px;\"">C</div>"", ""key_press"": null, ""test_part"": ""test"", ""next_elem"": "" "", ""trial_type"": ""html-keyboard-response"", ""trial_index"": 43, ""time_elapsed"": 118713, ""internal_node_id"": ""0.0-9.0-0.0-0.3"", ""uniqueId"": ""debugXJBA6B:debugVZBBZS"", ""condition"": 0, ""counterbalance"": 0}"
debugXJBA6B:debugVZBBZS,44,1579888211705,"{""rt"": null, ""stimulus"": ""<div style=\""font-size:65px;\""> </div>"", ""key_press"": null, ""test_part"": ""test"", ""next_elem"": "" "", ""trial_type"": ""html-keyboard-response"", ""trial_index"": 44, ""time_elapsed"": 119821, ""internal_node_id"": ""0.0-9.0-0.0-0.4"", ""uniqueId"": ""debugXJBA6B:debugVZBBZS"", ""condition"": 0, ""counterbalance"": 0}"
debugXJBA6B:debugVZBBZS,45,1579888213316,"{""rt"": 1305.435000002035, ""responses"": ""{\""Q0\"":5}"", ""question_order"": ""[0]"", ""trial_type"": ""survey-likert"", ""trial_index"": 45, ""time_elapsed"": 121432, ""internal_node_id"": ""0.0-9.0-1.0"", ""uniqueId"": ""debugXJBA6B:debugVZBBZS"", ""condition"": 0, ""counterbalance"": 0}"
debugXJBA6B:debugVZBBZS,46,1579888214960,"{""rt"": 1638.4299999917857, ""responses"": ""{\""Q0\"":\""B\""}"", ""question_order"": ""[0]"", ""trial_type"": ""survey-multi-choice"", ""trial_index"": 46, ""time_elapsed"": 123076, ""internal_node_id"": ""0.0-9.0-2.0"", ""uniqueId"": ""debugXJBA6B:debugVZBBZS"", ""condition"": 0, ""counterbalance"": 0}"
debugXJBA6B:debugVZBBZS,47,1579888216157,"{""rt"": 1191.0599999973783, ""stimulus"": ""Incorrect!<p> The correct choice was:  "", ""button_pressed"": ""0"", ""trial_type"": ""html-button-response"", ""trial_index"": 47, ""time_elapsed"": 124272, ""internal_node_id"": ""0.0-9.0-3.0"", ""uniqueId"": ""debugXJBA6B:debugVZBBZS"", ""condition"": 0, ""counterbalance"": 0}"
debugXJBA6B:debugVZBBZS,48,1579888216614,"{""rt"": 456.0700000001816, ""stimulus"": ""<div style=\""font-size:65px;\"">C</div>"", ""key_press"": 32, ""test_part"": ""test"", ""next_elem"": ""B"", ""trial_type"": ""html-keyboard-response"", ""trial_index"": 48, ""time_elapsed"": 124730, ""internal_node_id"": ""0.0-10.0-0.0-0.0"", ""uniqueId"": ""debugXJBA6B:debugVZBBZS"", ""condition"": 0, ""counterbalance"": 0}"
debugXJBA6B:debugVZBBZS,49,1579888216918,"{""rt"": null, ""stimulus"": """", ""key_press"": null, ""test_part"": ""test"", ""next_elem"": ""C"", ""trial_type"": ""html-keyboard-response"", ""trial_index"": 49, ""time_elapsed"": 125034, ""internal_node_id"": ""0.0-10.0-0.0-0.1"", ""uniqueId"": ""debugXJBA6B:debugVZBBZS"", ""condition"": 0, ""counterbalance"": 0}"
debugXJBA6B:debugVZBBZS,50,1579888217834,"{""rt"": 915.2800000010757, ""responses"": ""{\""Q0\"":5}"", ""question_order"": ""[0]"", ""trial_type"": ""survey-likert"", ""trial_index"": 50, ""time_elapsed"": 125950, ""internal_node_id"": ""0.0-10.0-1.0"", ""uniqueId"": ""debugXJBA6B:debugVZBBZS"", ""condition"": 0, ""counterbalance"": 0}"
debugXJBA6B:debugVZBBZS,51,1579888219212,"{""rt"": 1372.4849999998696, ""responses"": ""{\""Q0\"":\""A\""}"", ""question_order"": ""[0]"", ""trial_type"": ""survey-multi-choice"", ""trial_index"": 51, ""time_elapsed"": 127328, ""internal_node_id"": ""0.0-10.0-2.0"", ""uniqueId"": ""debugXJBA6B:debugVZBBZS"", ""condition"": 0, ""counterbalance"": 0}"
debugXJBA6B:debugVZBBZS,52,1579888219888,"{""rt"": 670.300000012503, ""stimulus"": ""Incorrect!<p> The correct choice was: B"", ""button_pressed"": ""0"", ""trial_type"": ""html-button-response"", ""trial_index"": 52, ""time_elapsed"": 128004, ""internal_node_id"": ""0.0-10.0-3.0"", ""uniqueId"": ""debugXJBA6B:debugVZBBZS"", ""condition"": 0, ""counterbalance"": 0}"
debugXJBA6B:debugVZBBZS,53,1579888220692,"{""rt"": null, ""stimulus"": ""<div style=\""font-size:65px;\"">C</div>"", ""key_press"": null, ""test_part"": ""test"", ""next_elem"": ""A"", ""trial_type"": ""html-keyboard-response"", ""trial_index"": 53, ""time_elapsed"": 128808, ""internal_node_id"": ""0.0-11.0-0.0-0.0"", ""uniqueId"": ""debugXJBA6B:debugVZBBZS"", ""condition"": 0, ""counterbalance"": 0}"
debugXJBA6B:debugVZBBZS,54,1579888221795,"{""rt"": null, ""stimulus"": ""<div style=\""font-size:65px;\"">A</div>"", ""key_press"": null, ""test_part"": ""test"", ""next_elem"": ""B"", ""trial_type"": ""html-keyboard-response"", ""trial_index"": 54, ""time_elapsed"": 129911, ""internal_node_id"": ""0.0-11.0-0.0-0.1"", ""uniqueId"": ""debugXJBA6B:debugVZBBZS"", ""condition"": 0, ""counterbalance"": 0}"
debugXJBA6B:debugVZBBZS,55,1579888222900,"{""rt"": null, ""stimulus"": ""<div style=\""font-size:65px;\"">B</div>"", ""key_press"": null, ""test_part"": ""test"", ""next_elem"": ""A"", ""trial_type"": ""html-keyboard-response"", ""trial_index"": 55, ""time_elapsed"": 131016, ""internal_node_id"": ""0.0-11.0-0.0-0.2"", ""uniqueId"": ""debugXJBA6B:debugVZBBZS"", ""condition"": 0, ""counterbalance"": 0}"
debugXJBA6B:debugVZBBZS,56,1579888224008,"{""rt"": null, ""stimulus"": ""<div style=\""font-size:65px;\"">A</div>"", ""key_press"": null, ""test_part"": ""test"", ""next_elem"": ""B"", ""trial_type"": ""html-keyboard-response"", ""trial_index"": 56, ""time_elapsed"": 132124, ""internal_node_id"": ""0.0-11.0-0.0-0.3"", ""uniqueId"": ""debugXJBA6B:debugVZBBZS"", ""condition"": 0, ""counterbalance"": 0}"
debugXJBA6B:debugVZBBZS,57,1579888225112,"{""rt"": null, ""stimulus"": ""<div style=\""font-size:65px;\"">B</div>"", ""key_press"": null, ""test_part"": ""test"", ""next_elem"": ""C"", ""trial_type"": ""html-keyboard-response"", ""trial_index"": 57, ""time_elapsed"": 133228, ""internal_node_id"": ""0.0-11.0-0.0-0.4"", ""uniqueId"": ""debugXJBA6B:debugVZBBZS"", ""condition"": 0, ""counterbalance"": 0}"
debugXJBA6B:debugVZBBZS,58,1579888227804,"{""rt"": 2389.965000009397, ""responses"": ""{\""Q0\"":5}"", ""question_order"": ""[0]"", ""trial_type"": ""survey-likert"", ""trial_index"": 58, ""time_elapsed"": 135920, ""internal_node_id"": ""0.0-11.0-1.0"", ""uniqueId"": ""debugXJBA6B:debugVZBBZS"", ""condition"": 0, ""counterbalance"": 0}"
debugXJBA6B:debugVZBBZS,59,1579888230132,"{""rt"": 2322.390000001178, ""responses"": ""{\""Q0\"":\""A\""}"", ""question_order"": ""[0]"", ""trial_type"": ""survey-multi-choice"", ""trial_index"": 59, ""time_elapsed"": 138248, ""internal_node_id"": ""0.0-11.0-2.0"", ""uniqueId"": ""debugXJBA6B:debugVZBBZS"", ""condition"": 0, ""counterbalance"": 0}"
debugXJBA6B:debugVZBBZS,60,1579888239492,"{""rt"": 9354.544999994687, ""stimulus"": ""Incorrect!<p> The correct choice was: B"", ""button_pressed"": ""0"", ""trial_type"": ""html-button-response"", ""trial_index"": 60, ""time_elapsed"": 147607, ""internal_node_id"": ""0.0-11.0-3.0"", ""uniqueId"": ""debugXJBA6B:debugVZBBZS"", ""condition"": 0, ""counterbalance"": 0}"
debugXJBA6B:debugVZBBZS,61,1579888240294,"{""rt"": null, ""stimulus"": ""<div style=\""font-size:65px;\"">C</div>"", ""key_press"": null, ""test_part"": ""test"", ""next_elem"": ""C"", ""trial_type"": ""html-keyboard-response"", ""trial_index"": 61, ""time_elapsed"": 148410, ""internal_node_id"": ""0.0-12.0-0.0-0.0"", ""uniqueId"": ""debugXJBA6B:debugVZBBZS"", ""condition"": 0, ""counterbalance"": 0}"
debugXJBA6B:debugVZBBZS,62,1579888241401,"{""rt"": null, ""stimulus"": ""<div style=\""font-size:65px;\"">C</div>"", ""key_press"": null, ""test_part"": ""test"", ""next_elem"": ""C"", ""trial_type"": ""html-keyboard-response"", ""trial_index"": 62, ""time_elapsed"": 149517, ""internal_node_id"": ""0.0-12.0-0.0-0.1"", ""uniqueId"": ""debugXJBA6B:debugVZBBZS"", ""condition"": 0, ""counterbalance"": 0}"
debugXJBA6B:debugVZBBZS,63,1579888242512,"{""rt"": null, ""stimulus"": ""<div style=\""font-size:65px;\"">C</div>"", ""key_press"": null, ""test_part"": ""test"", ""next_elem"": ""B"", ""trial_type"": ""html-keyboard-response"", ""trial_index"": 63, ""time_elapsed"": 150628, ""internal_node_id"": ""0.0-12.0-0.0-0.2"", ""uniqueId"": ""debugXJBA6B:debugVZBBZS"", ""condition"": 0, ""counterbalance"": 0}"
debugXJBA6B:debugVZBBZS,64,1579888243616,"{""rt"": null, ""stimulus"": ""<div style=\""font-size:65px;\"">B</div>"", ""key_press"": null, ""test_part"": ""test"", ""next_elem"": ""B"", ""trial_type"": ""html-keyboard-response"", ""trial_index"": 64, ""time_elapsed"": 151732, ""internal_node_id"": ""0.0-12.0-0.0-0.3"", ""uniqueId"": ""debugXJBA6B:debugVZBBZS"", ""condition"": 0, ""counterbalance"": 0}"
debugXJBA6B:debugVZBBZS,65,1579888244724,"{""rt"": null, ""stimulus"": ""<div style=\""font-size:65px;\"">B</div>"", ""key_press"": null, ""test_part"": ""test"", ""next_elem"": "" "", ""trial_type"": ""html-keyboard-response"", ""trial_index"": 65, ""time_elapsed"": 152840, ""internal_node_id"": ""0.0-12.0-0.0-0.4"", ""uniqueId"": ""debugXJBA6B:debugVZBBZS"", ""condition"": 0, ""counterbalance"": 0}"
debugXJBA6B:debugVZBBZS,66,1579888249576,"{""rt"": 4546.944999994594, ""responses"": ""{\""Q0\"":5}"", ""question_order"": ""[0]"", ""trial_type"": ""survey-likert"", ""trial_index"": 66, ""time_elapsed"": 157692, ""internal_node_id"": ""0.0-12.0-1.0"", ""uniqueId"": ""debugXJBA6B:debugVZBBZS"", ""condition"": 0, ""counterbalance"": 0}"
debugXJBA6B:debugVZBBZS,67,1579888251026,"{""rt"": 1444.1900000092573, ""responses"": ""{\""Q0\"":\""I do not know\""}"", ""question_order"": ""[0]"", ""trial_type"": ""survey-multi-choice"", ""trial_index"": 67, ""time_elapsed"": 159141, ""internal_node_id"": ""0.0-12.0-2.0"", ""uniqueId"": ""debugXJBA6B:debugVZBBZS"", ""condition"": 0, ""counterbalance"": 0}"
debugXJBA6B:debugVZBBZS,68,1579888252639,"{""rt"": 1606.2399999937043, ""stimulus"": ""Okay, let's move to the next trial"", ""button_pressed"": ""0"", ""trial_type"": ""html-button-response"", ""trial_index"": 68, ""time_elapsed"": 160753, ""internal_node_id"": ""0.0-12.0-3.0"", ""uniqueId"": ""debugXJBA6B:debugVZBBZS"", ""condition"": 0, ""counterbalance"": 0}"
debugUUEQVW:debug3HXXK6,0,1579889801980,"{""rt"": 89302.59499998647, ""stimulus"": ""<p>This session will last for 15min.</p><p> In each trial, you will see some symbols appearing one-by-one. </p><p> You will be asked to stop the sequence whenever you can answer some questions (more on this later). </p><p> Each sequence is independent from one another. </p><p> <br /> Let us practice before we move on to the actual experiment: </p>"", ""button_pressed"": ""0"", ""trial_type"": ""html-button-response"", ""trial_index"": 0, ""time_elapsed"": 89321, ""internal_node_id"": ""0.0-0.0"", ""uniqueId"": ""debugUUEQVW:debug3HXXK6"", ""condition"": 0, ""counterbalance"": 0}"
debugUUEQVW:debug3HXXK6,1,1579889938280,"{""rt"": 135297.2449999943, ""stimulus"": ""Some sequences will be highly predictable, like these </p> (press spacebar when you figured out the pattern):"", ""button_pressed"": ""0"", ""trial_type"": ""html-button-response"", ""trial_index"": 1, ""time_elapsed"": 225622, ""internal_node_id"": ""0.0-1.0"", ""uniqueId"": ""debugUUEQVW:debug3HXXK6"", ""condition"": 0, ""counterbalance"": 0}"
debugUUEQVW:debug3HXXK6,2,1579889940089,"{""rt"": null, ""stimulus"": ""<div style=\""font-size:65px;\"">  <p> </p>A</div>"", ""key_press"": null, ""test_part"": ""training"", ""next_elem"": ""B"", ""trial_type"": ""html-keyboard-response"", ""trial_index"": 2, ""time_elapsed"": 227431, ""internal_node_id"": ""0.0-2.0-0.0-0.0"", ""uniqueId"": ""debugUUEQVW:debug3HXXK6"", ""condition"": 0, ""counterbalance"": 0}"
debugUUEQVW:debug3HXXK6,3,1579889941192,"{""rt"": null, ""stimulus"": ""<div style=\""font-size:65px;\"">  <p> </p>B</div>"", ""key_press"": null, ""test_part"": ""training"", ""next_elem"": ""C"", ""trial_type"": ""html-keyboard-response"", ""trial_index"": 3, ""time_elapsed"": 228534, ""internal_node_id"": ""0.0-2.0-0.0-0.1"", ""uniqueId"": ""debugUUEQVW:debug3HXXK6"", ""condition"": 0, ""counterbalance"": 0}"
debugUUEQVW:debug3HXXK6,4,1579889942298,"{""rt"": null, ""stimulus"": ""<div style=\""font-size:65px;\"">  <p> </p>C</div>"", ""key_press"": null, ""test_part"": ""training"", ""next_elem"": ""A"", ""trial_type"": ""html-keyboard-response"", ""trial_index"": 4, ""time_elapsed"": 229640, ""internal_node_id"": ""0.0-2.0-0.0-0.2"", ""uniqueId"": ""debugUUEQVW:debug3HXXK6"", ""condition"": 0, ""counterbalance"": 0}"
debugUUEQVW:debug3HXXK6,5,1579889943405,"{""rt"": null, ""stimulus"": ""<div style=\""font-size:65px;\"">  <p> </p>A</div>"", ""key_press"": null, ""test_part"": ""training"", ""next_elem"": ""B"", ""trial_type"": ""html-keyboard-response"", ""trial_index"": 5, ""time_elapsed"": 230747, ""internal_node_id"": ""0.0-2.0-0.0-0.3"", ""uniqueId"": ""debugUUEQVW:debug3HXXK6"", ""condition"": 0, ""counterbalance"": 0}"
debugUUEQVW:debug3HXXK6,6,1579889944516,"{""rt"": null, ""stimulus"": ""<div style=\""font-size:65px;\"">  <p> </p>B</div>"", ""key_press"": null, ""test_part"": ""training"", ""next_elem"": ""C"", ""trial_type"": ""html-keyboard-response"", ""trial_index"": 6, ""time_elapsed"": 231858, ""internal_node_id"": ""0.0-2.0-0.0-0.4"", ""uniqueId"": ""debugUUEQVW:debug3HXXK6"", ""condition"": 0, ""counterbalance"": 0}"
debugUUEQVW:debug3HXXK6,7,1579889945624,"{""rt"": null, ""stimulus"": ""<div style=\""font-size:65px;\"">  <p> </p>C</div>"", ""key_press"": null, ""test_part"": ""training"", ""next_elem"": ""A"", ""trial_type"": ""html-keyboard-response"", ""trial_index"": 7, ""time_elapsed"": 232966, ""internal_node_id"": ""0.0-2.0-0.0-0.5"", ""uniqueId"": ""debugUUEQVW:debug3HXXK6"", ""condition"": 0, ""counterbalance"": 0}"
debugUUEQVW:debug3HXXK6,8,1579889946729,"{""rt"": null, ""stimulus"": ""<div style=\""font-size:65px;\"">  <p> </p>A</div>"", ""key_press"": null, ""test_part"": ""training"", ""next_elem"": ""B"", ""trial_type"": ""html-keyboard-response"", ""trial_index"": 8, ""time_elapsed"": 234071, ""internal_node_id"": ""0.0-2.0-0.0-0.6"", ""uniqueId"": ""debugUUEQVW:debug3HXXK6"", ""condition"": 0, ""counterbalance"": 0}"
debugUUEQVW:debug3HXXK6,9,1579889947422,"{""rt"": 387.6149999850895, ""stimulus"": ""<div style=\""font-size:65px;\"">  <p> </p>B</div>"", ""key_press"": 32, ""test_part"": ""training"", ""next_elem"": ""C"", ""trial_type"": ""html-keyboard-response"", ""trial_index"": 9, ""time_elapsed"": 234764, ""internal_node_id"": ""0.0-2.0-0.0-0.7"", ""uniqueId"": ""debugUUEQVW:debug3HXXK6"", ""condition"": 0, ""counterbalance"": 0}"
debugUUEQVW:debug3HXXK6,10,1579889947725,"{""rt"": null, ""stimulus"": """", ""key_press"": null, ""test_part"": ""training"", ""next_elem"": ""A"", ""trial_type"": ""html-keyboard-response"", ""trial_index"": 10, ""time_elapsed"": 235067, ""internal_node_id"": ""0.0-2.0-0.0-0.8"", ""uniqueId"": ""debugUUEQVW:debug3HXXK6"", ""condition"": 0, ""counterbalance"": 0}"
debugUUEQVW:debug3HXXK6,11,1579889964514,"{""rt"": 16786.369999987073, ""responses"": ""{\""Q0\"":5}"", ""question_order"": ""[0]"", ""trial_type"": ""survey-likert"", ""trial_index"": 11, ""time_elapsed"": 251856, ""internal_node_id"": ""0.0-2.0-1.0"", ""uniqueId"": ""debugUUEQVW:debug3HXXK6"", ""condition"": 0, ""counterbalance"": 0}"
debugUUEQVW:debug3HXXK6,12,1579890018771,"{""rt"": 54254.57499999902, ""responses"": ""{\""Q0\"":\""I do not know\""}"", ""question_order"": ""[0]"", ""trial_type"": ""survey-multi-choice"", ""trial_index"": 12, ""time_elapsed"": 306113, ""internal_node_id"": ""0.0-2.0-2.0"", ""uniqueId"": ""debugUUEQVW:debug3HXXK6"", ""condition"": 0, ""counterbalance"": 0}"
debugUUEQVW:debug3HXXK6,13,1579890082679,"{""rt"": 63902.6550000126, ""stimulus"": ""Okay, let's move to the next trial"", ""button_pressed"": ""0"", ""trial_type"": ""html-button-response"", ""trial_index"": 13, ""time_elapsed"": 370021, ""internal_node_id"": ""0.0-2.0-3.0"", ""uniqueId"": ""debugUUEQVW:debug3HXXK6"", ""condition"": 0, ""counterbalance"": 0}"
debugUUEQVW:debug3HXXK6,14,1579890083481,"{""rt"": null, ""stimulus"": ""<div style=\""font-size:65px;\"">  <p> </p>A</div>"", ""key_press"": null, ""test_part"": ""training"", ""next_elem"": ""A"", ""trial_type"": ""html-keyboard-response"", ""trial_index"": 14, ""time_elapsed"": 370823, ""internal_node_id"": ""0.0-3.0-0.0-0.0"", ""uniqueId"": ""debugUUEQVW:debug3HXXK6"", ""condition"": 0, ""counterbalance"": 0}"
debugUUEQVW:debug3HXXK6,15,1579890084589,"{""rt"": null, ""stimulus"": ""<div style=\""font-size:65px;\"">  <p> </p>A</div>"", ""key_press"": null, ""test_part"": ""training"", ""next_elem"": ""A"", ""trial_type"": ""html-keyboard-response"", ""trial_index"": 15, ""time_elapsed"": 371931, ""internal_node_id"": ""0.0-3.0-0.0-0.1"", ""uniqueId"": ""debugUUEQVW:debug3HXXK6"", ""condition"": 0, ""counterbalance"": 0}"
debugUUEQVW:debug3HXXK6,16,1579890085698,"{""rt"": null, ""stimulus"": ""<div style=\""font-size:65px;\"">  <p> </p>A</div>"", ""key_press"": null, ""test_part"": ""training"", ""next_elem"": ""A"", ""trial_type"": ""html-keyboard-response"", ""trial_index"": 16, ""time_elapsed"": 373040, ""internal_node_id"": ""0.0-3.0-0.0-0.2"", ""uniqueId"": ""debugUUEQVW:debug3HXXK6"", ""condition"": 0, ""counterbalance"": 0}"
debugUUEQVW:debug3HXXK6,17,1579890086807,"{""rt"": null, ""stimulus"": ""<div style=\""font-size:65px;\"">  <p> </p>A</div>"", ""key_press"": null, ""test_part"": ""training"", ""next_elem"": ""A"", ""trial_type"": ""html-keyboard-response"", ""trial_index"": 17, ""time_elapsed"": 374149, ""internal_node_id"": ""0.0-3.0-0.0-0.3"", ""uniqueId"": ""debugUUEQVW:debug3HXXK6"", ""condition"": 0, ""counterbalance"": 0}"
debugUUEQVW:debug3HXXK6,18,1579890087917,"{""rt"": null, ""stimulus"": ""<div style=\""font-size:65px;\"">  <p> </p>A</div>"", ""key_press"": null, ""test_part"": ""training"", ""next_elem"": ""A"", ""trial_type"": ""html-keyboard-response"", ""trial_index"": 18, ""time_elapsed"": 375259, ""internal_node_id"": ""0.0-3.0-0.0-0.4"", ""uniqueId"": ""debugUUEQVW:debug3HXXK6"", ""condition"": 0, ""counterbalance"": 0}"
debugUUEQVW:debug3HXXK6,19,1579890088516,"{""rt"": 294.0200000011828, ""stimulus"": ""<div style=\""font-size:65px;\"">  <p> </p>A</div>"", ""key_press"": 32, ""test_part"": ""training"", ""next_elem"": ""A"", ""trial_type"": ""html-keyboard-response"", ""trial_index"": 19, ""time_elapsed"": 375858, ""internal_node_id"": ""0.0-3.0-0.0-0.5"", ""uniqueId"": ""debugUUEQVW:debug3HXXK6"", ""condition"": 0, ""counterbalance"": 0}"
debugUUEQVW:debug3HXXK6,20,1579890088822,"{""rt"": null, ""stimulus"": """", ""key_press"": null, ""test_part"": ""training"", ""next_elem"": ""A"", ""trial_type"": ""html-keyboard-response"", ""trial_index"": 20, ""time_elapsed"": 376164, ""internal_node_id"": ""0.0-3.0-0.0-0.6"", ""uniqueId"": ""debugUUEQVW:debug3HXXK6"", ""condition"": 0, ""counterbalance"": 0}"
debugUUEQVW:debug3HXXK6,21,1579890090796,"{""rt"": 1971.8049999792129, ""responses"": ""{\""Q0\"":5}"", ""question_order"": ""[0]"", ""trial_type"": ""survey-likert"", ""trial_index"": 21, ""time_elapsed"": 378138, ""internal_node_id"": ""0.0-3.0-1.0"", ""uniqueId"": ""debugUUEQVW:debug3HXXK6"", ""condition"": 0, ""counterbalance"": 0}"
debugUUEQVW:debug3HXXK6,22,1579890093331,"{""rt"": 2528.8500000024214, ""responses"": ""{\""Q0\"":\""A\""}"", ""question_order"": ""[0]"", ""trial_type"": ""survey-multi-choice"", ""trial_index"": 22, ""time_elapsed"": 380673, ""internal_node_id"": ""0.0-3.0-2.0"", ""uniqueId"": ""debugUUEQVW:debug3HXXK6"", ""condition"": 0, ""counterbalance"": 0}"
debugUUEQVW:debug3HXXK6,23,1579890097493,"{""rt"": 4157.024999993155, ""stimulus"": ""Correct!"", ""button_pressed"": ""0"", ""trial_type"": ""html-button-response"", ""trial_index"": 23, ""time_elapsed"": 384835, ""internal_node_id"": ""0.0-3.0-3.0"", ""uniqueId"": ""debugUUEQVW:debug3HXXK6"", ""condition"": 0, ""counterbalance"": 0}"
debugUUEQVW:debug3HXXK6,24,1579890458226,"{""rt"": 360737.04000000726, ""stimulus"": ""<p> Some sequences may be completely random, like this one </p>(press spacebar you have convinced yourself that the sequence is random)"", ""button_pressed"": ""0"", ""trial_type"": ""html-button-response"", ""trial_index"": 24, ""time_elapsed"": 745568, ""internal_node_id"": ""0.0-4.0"", ""uniqueId"": ""debugUUEQVW:debug3HXXK6"", ""condition"": 0, ""counterbalance"": 0}"
debugUUEQVW:debug3HXXK6,25,1579890458228,"{""test_part"": ""training"", ""next_elem"": ""B"", ""trial_type"": ""html-keyboard-response"", ""trial_index"": 25, ""time_elapsed"": 745570, ""internal_node_id"": ""0.0-5.0-0.0-0.0"", ""uniqueId"": ""debugUUEQVW:debug3HXXK6"", ""condition"": 0, ""counterbalance"": 0}"
A1ZCGEWSYLB9AE:308Q0PEVB9D3XYLHMYQ0Q5M7GVL9IT,0,1579893338652,"{""rt"": 3504.000000000001, ""stimulus"": ""<p>This session will last for 15min.</p><p> In each trial, you will see some symbols appearing one-by-one. </p><p> You will be asked to stop the sequence whenever you can answer some questions (more on this later). </p><p> Each sequence is independent from one another. </p><p> <br /> Let us practice before we move on to the actual experiment: </p>"", ""button_pressed"": ""0"", ""trial_type"": ""html-button-response"", ""trial_index"": 0, ""time_elapsed"": 3514, ""internal_node_id"": ""0.0-0.0"", ""uniqueId"": ""A1ZCGEWSYLB9AE:308Q0PEVB9D3XYLHMYQ0Q5M7GVL9IT"", ""condition"": 0, ""counterbalance"": 0}"
A1ZCGEWSYLB9AE:308Q0PEVB9D3XYLHMYQ0Q5M7GVL9IT,1,1579893342578,"{""rt"": 2923.999999999999, ""stimulus"": ""Some sequences will be highly predictable, like these </p> (press spacebar when you figured out the pattern):"", ""button_pressed"": ""0"", ""trial_type"": ""html-button-response"", ""trial_index"": 1, ""time_elapsed"": 7440, ""internal_node_id"": ""0.0-1.0"", ""uniqueId"": ""A1ZCGEWSYLB9AE:308Q0PEVB9D3XYLHMYQ0Q5M7GVL9IT"", ""condition"": 0, ""counterbalance"": 0}"
A1ZCGEWSYLB9AE:308Q0PEVB9D3XYLHMYQ0Q5M7GVL9IT,2,1579893344385,"{""rt"": null, ""stimulus"": ""<div style=\""font-size:65px;\"">  <p> </p>A</div>"", ""key_press"": null, ""test_part"": ""training"", ""next_elem"": ""B"", ""trial_type"": ""html-keyboard-response"", ""trial_index"": 2, ""time_elapsed"": 9247, ""internal_node_id"": ""0.0-2.0-0.0-0.0"", ""uniqueId"": ""A1ZCGEWSYLB9AE:308Q0PEVB9D3XYLHMYQ0Q5M7GVL9IT"", ""condition"": 0, ""counterbalance"": 0}"
A1ZCGEWSYLB9AE:308Q0PEVB9D3XYLHMYQ0Q5M7GVL9IT,3,1579893345489,"{""rt"": null, ""stimulus"": ""<div style=\""font-size:65px;\"">  <p> </p>B</div>"", ""key_press"": null, ""test_part"": ""training"", ""next_elem"": ""C"", ""trial_type"": ""html-keyboard-response"", ""trial_index"": 3, ""time_elapsed"": 10351, ""internal_node_id"": ""0.0-2.0-0.0-0.1"", ""uniqueId"": ""A1ZCGEWSYLB9AE:308Q0PEVB9D3XYLHMYQ0Q5M7GVL9IT"", ""condition"": 0, ""counterbalance"": 0}"
A1ZCGEWSYLB9AE:308Q0PEVB9D3XYLHMYQ0Q5M7GVL9IT,4,1579893346128,"{""rt"": 337, ""stimulus"": ""<div style=\""font-size:65px;\"">  <p> </p>C</div>"", ""key_press"": 32, ""test_part"": ""training"", ""next_elem"": ""A"", ""trial_type"": ""html-keyboard-response"", ""trial_index"": 4, ""time_elapsed"": 10990, ""internal_node_id"": ""0.0-2.0-0.0-0.2"", ""uniqueId"": ""A1ZCGEWSYLB9AE:308Q0PEVB9D3XYLHMYQ0Q5M7GVL9IT"", ""condition"": 0, ""counterbalance"": 0}"
A1ZCGEWSYLB9AE:308Q0PEVB9D3XYLHMYQ0Q5M7GVL9IT,5,1579893346431,"{""rt"": null, ""stimulus"": """", ""key_press"": null, ""test_part"": ""training"", ""next_elem"": ""B"", ""trial_type"": ""html-keyboard-response"", ""trial_index"": 5, ""time_elapsed"": 11293, ""internal_node_id"": ""0.0-2.0-0.0-0.3"", ""uniqueId"": ""A1ZCGEWSYLB9AE:308Q0PEVB9D3XYLHMYQ0Q5M7GVL9IT"", ""condition"": 0, ""counterbalance"": 0}"
A1ZCGEWSYLB9AE:308Q0PEVB9D3XYLHMYQ0Q5M7GVL9IT,6,1579893348507,"{""rt"": 2074, ""responses"": ""{\""Q0\"":5}"", ""question_order"": ""[0]"", ""trial_type"": ""survey-likert"", ""trial_index"": 6, ""time_elapsed"": 13369, ""internal_node_id"": ""0.0-2.0-1.0"", ""uniqueId"": ""A1ZCGEWSYLB9AE:308Q0PEVB9D3XYLHMYQ0Q5M7GVL9IT"", ""condition"": 0, ""counterbalance"": 0}"
